"trial_type","trial_index","time_elapsed","internal_node_id","subject","experiment","code_version","rt","stimulus","key_press","event","button_pressed","octave","pitch_shift","offset"
"pavlovia","0","12","0.0-0.0","32","IP","v1.0","","","","","","","",""
"html-keyboard-response","1","71525","0.0-1.0","32","IP","v1.0","71441.79999999702","<p>Welcome to the study! Press any key to begin reading the instructions.</p>","32","welcome","","","",""
"html-button-response","2","78093","0.0-2.0","32","IP","v1.0","6566.4000000059605","<p><strong>Instructions:</strong> Today we'll be asking you to listen to sequences of tones and to make some judgments about them. Specifically, you will hear seven tones on each trial. The first six tones you hear will be identical to one another, but the seventh tone will be shifted slightly higher or lower in pitch. Your goal is to determine whether the final tone is higher or lower than the first six. You will need to listen carefully, as the change in pitch will be small. We are interested in the limits of human abilities, so don't feel discouraged if you find it difficult to tell the tones apart.</p><p>Let's try a few practice trials to help you get used to the task. Click the button below when you are ready to start practicing.</p>","","main_instructions","0","","",""
"audio-keyboard-response","3","83363","0.0-3.0-0.0","32","IP","v1.0","null","stimuli/sequence_A4-_500_0.wav","null","practice_tones","","4","-","0"
"html-keyboard-response","4","85300","0.0-3.0-1.0","32","IP","v1.0","1937","Was the final tone (up arrow) higher or (down arrow) lower in pitch?","40","practrice_response","","4","-","0"
"html-keyboard-response","5","88292","0.0-3.0-2.0","32","IP","v1.0","2990.2000000029802","<strong>Answer:</strong> The final tone began <strong>lower</strong> on this trial. Press any key to continue.","32","practice_feedback","","","",""
"audio-keyboard-response","6","93045","0.0-3.0-0.1","32","IP","v1.0","null","stimuli/sequence_A4-_500_0.wav","null","practice_tones","","4","-","0"
"html-keyboard-response","7","94084","0.0-3.0-1.1","32","IP","v1.0","1038.7999999970198","Was the final tone (up arrow) higher or (down arrow) lower in pitch?","40","practrice_response","","4","-","0"
"html-keyboard-response","8","96364","0.0-3.0-2.1","32","IP","v1.0","2279.1000000089407","<strong>Answer:</strong> The final tone was <strong>lower</strong> on this trial. Press any key to continue.","32","practice_feedback","","","",""
"audio-keyboard-response","9","101120","0.0-3.0-0.2","32","IP","v1.0","null","stimuli/sequence_A4+_500_0.wav","null","practice_tones","","4","+","0"
"html-keyboard-response","10","102156","0.0-3.0-1.2","32","IP","v1.0","1035.9000000059605","Was the final tone (up arrow) higher or (down arrow) lower in pitch?","38","practrice_response","","4","+","0"
"html-keyboard-response","11","103172","0.0-3.0-2.2","32","IP","v1.0","1015.0999999940395","<strong>Answer:</strong> The final tone began <strong>higher</strong> on this trial. Press any key to continue.","32","practice_feedback","","","",""
"audio-keyboard-response","12","107923","0.0-3.0-0.3","32","IP","v1.0","null","stimuli/sequence_A4+_500_0.wav","null","practice_tones","","4","+","0"
"html-keyboard-response","13","109469","0.0-3.0-1.3","32","IP","v1.0","1544.5","Was the final tone (up arrow) higher or (down arrow) lower in pitch?","38","practrice_response","","4","+","0"
"html-keyboard-response","14","110652","0.0-3.0-2.3","32","IP","v1.0","1183.1000000089407","<strong>Answer:</strong> The final tone began <strong>higher</strong> on this trial. Press any key to continue.","32","practice_feedback","","","",""
"html-button-response","15","166150","0.0-4.0","32","IP","v1.0","53993.09999999404","<p>Great work! Now you're ready to try it for real.</p><p>Please note that the trials will be organized into 4 sections. Each section will last about 5 minutes, and you will be able to take a break after each. Remember, your goal is to determine whether the final tone on each trial was higher or lower in pitch than the first six.</p><p>Press the button below to begin.</p>","","summary_instructions","0","","",""
"audio-keyboard-response","16","171483","0.0-5.0","32","IP","v1.0","null","stimuli/sequence_A5-_500_15.wav","null","tones","","5","-","15"
"html-keyboard-response","17","173318","0.0-6.0","32","IP","v1.0","1833.699999988079","Was the final tone (up arrow) higher or (down arrow) lower in pitch?","38","response","","5","-","15"
"audio-keyboard-response","18","178147","0.0-7.0","32","IP","v1.0","null","stimuli/sequence_A5-_500_15.wav","null","tones","","5","-","15"
"html-keyboard-response","19","179286","0.0-8.0","32","IP","v1.0","1137.699999988079","Was the final tone (up arrow) higher or (down arrow) lower in pitch?","40","response","","5","-","15"
"audio-keyboard-response","20","184039","0.0-9.0","32","IP","v1.0","null","stimuli/sequence_A5+_500_0.wav","null","tones","","5","+","0"
"html-keyboard-response","21","184870","0.0-10.0","32","IP","v1.0","829.5999999940395","Was the final tone (up arrow) higher or (down arrow) lower in pitch?","40","response","","5","+","0"
"audio-keyboard-response","22","189548","0.0-11.0","32","IP","v1.0","null","stimuli/sequence_A5-_500_-15.wav","null","tones","","5","-","-15"
"html-keyboard-response","23","190246","0.0-12.0","32","IP","v1.0","696.6999999880791","Was the final tone (up arrow) higher or (down arrow) lower in pitch?","38","response","","5","-","-15"
"audio-keyboard-response","24","195069","0.0-13.0","32","IP","v1.0","null","stimuli/sequence_A5-_500_15.wav","null","tones","","5","-","15"
"html-keyboard-response","25","195854","0.0-14.0","32","IP","v1.0","783.9000000059605","Was the final tone (up arrow) higher or (down arrow) lower in pitch?","40","response","","5","-","15"
"audio-keyboard-response","26","200532","0.0-15.0","32","IP","v1.0","null","stimuli/sequence_A5-_500_-15.wav","null","tones","","5","-","-15"
"html-keyboard-response","27","202350","0.0-16.0","32","IP","v1.0","1817.7000000029802","Was the final tone (up arrow) higher or (down arrow) lower in pitch?","40","response","","5","-","-15"
"audio-keyboard-response","28","207179","0.0-17.0","32","IP","v1.0","null","stimuli/sequence_A5+_500_15.wav","null","tones","","5","+","15"
"html-keyboard-response","29","208318","0.0-18.0","32","IP","v1.0","1138.7000000029802","Was the final tone (up arrow) higher or (down arrow) lower in pitch?","40","response","","5","+","15"
"audio-keyboard-response","30","213071","0.0-19.0","32","IP","v1.0","null","stimuli/sequence_A5+_500_0.wav","null","tones","","5","+","0"
"html-keyboard-response","31","213774","0.0-20.0","32","IP","v1.0","703","Was the final tone (up arrow) higher or (down arrow) lower in pitch?","38","response","","5","+","0"
"audio-keyboard-response","32","218452","0.0-21.0","32","IP","v1.0","null","stimuli/sequence_A5-_500_-15.wav","null","tones","","5","-","-15"
"html-keyboard-response","33","219454","0.0-22.0","32","IP","v1.0","1001.5","Was the final tone (up arrow) higher or (down arrow) lower in pitch?","40","response","","5","-","-15"
"audio-keyboard-response","34","224135","0.0-23.0","32","IP","v1.0","null","stimuli/sequence_A5-_500_-15.wav","null","tones","","5","-","-15"
"html-keyboard-response","35","224782","0.0-24.0","32","IP","v1.0","646.5","Was the final tone (up arrow) higher or (down arrow) lower in pitch?","38","response","","5","-","-15"
"audio-keyboard-response","36","229458","0.0-25.0","32","IP","v1.0","null","stimuli/sequence_A5+_500_-15.wav","null","tones","","5","+","-15"
"html-keyboard-response","37","230262","0.0-26.0","32","IP","v1.0","803.2000000029802","Was the final tone (up arrow) higher or (down arrow) lower in pitch?","38","response","","5","+","-15"
"audio-keyboard-response","38","235014","0.0-27.0","32","IP","v1.0","null","stimuli/sequence_A5-_500_0.wav","null","tones","","5","-","0"
"html-keyboard-response","39","235823","0.0-28.0","32","IP","v1.0","808","Was the final tone (up arrow) higher or (down arrow) lower in pitch?","40","response","","5","-","0"
"audio-keyboard-response","40","240500","0.0-29.0","32","IP","v1.0","null","stimuli/sequence_A5+_500_-15.wav","null","tones","","5","+","-15"
"html-keyboard-response","41","241551","0.0-30.0","32","IP","v1.0","1050.0999999940395","Was the final tone (up arrow) higher or (down arrow) lower in pitch?","38","response","","5","+","-15"
"audio-keyboard-response","42","246229","0.0-31.0","32","IP","v1.0","null","stimuli/sequence_A5-_500_-15.wav","null","tones","","5","-","-15"
"html-keyboard-response","43","246871","0.0-32.0","32","IP","v1.0","640.7999999970198","Was the final tone (up arrow) higher or (down arrow) lower in pitch?","40","response","","5","-","-15"
"audio-keyboard-response","44","251698","0.0-33.0","32","IP","v1.0","null","stimuli/sequence_A5+_500_15.wav","null","tones","","5","+","15"
"html-keyboard-response","45","252415","0.0-34.0","32","IP","v1.0","716.2000000029802","Was the final tone (up arrow) higher or (down arrow) lower in pitch?","40","response","","5","+","15"
"audio-keyboard-response","46","257242","0.0-35.0","32","IP","v1.0","null","stimuli/sequence_A5+_500_15.wav","null","tones","","5","+","15"
"html-keyboard-response","47","257927","0.0-36.0","32","IP","v1.0","684.8999999910593","Was the final tone (up arrow) higher or (down arrow) lower in pitch?","40","response","","5","+","15"
"audio-keyboard-response","48","262681","0.0-37.0","32","IP","v1.0","null","stimuli/sequence_A5+_500_0.wav","null","tones","","5","+","0"
"html-keyboard-response","49","264407","0.0-38.0","32","IP","v1.0","1725.2000000029802","Was the final tone (up arrow) higher or (down arrow) lower in pitch?","38","response","","5","+","0"
"audio-keyboard-response","50","269084","0.0-39.0","32","IP","v1.0","null","stimuli/sequence_A5-_500_-15.wav","null","tones","","5","-","-15"
"html-keyboard-response","51","270567","0.0-40.0","32","IP","v1.0","1482.5999999940395","Was the final tone (up arrow) higher or (down arrow) lower in pitch?","40","response","","5","-","-15"
"audio-keyboard-response","52","275319","0.0-41.0","32","IP","v1.0","null","stimuli/sequence_A5+_500_0.wav","null","tones","","5","+","0"
"html-keyboard-response","53","276231","0.0-42.0","32","IP","v1.0","912","Was the final tone (up arrow) higher or (down arrow) lower in pitch?","40","response","","5","+","0"
"audio-keyboard-response","54","280909","0.0-43.0","32","IP","v1.0","null","stimuli/sequence_A5-_500_-15.wav","null","tones","","5","-","-15"
"html-keyboard-response","55","282520","0.0-44.0","32","IP","v1.0","1609.5999999940395","Was the final tone (up arrow) higher or (down arrow) lower in pitch?","38","response","","5","-","-15"
"audio-keyboard-response","56","287271","0.0-45.0","32","IP","v1.0","null","stimuli/sequence_A5+_500_0.wav","null","tones","","5","+","0"
"html-keyboard-response","57","288448","0.0-46.0","32","IP","v1.0","1175.4000000059605","Was the final tone (up arrow) higher or (down arrow) lower in pitch?","38","response","","5","+","0"
"audio-keyboard-response","58","293123","0.0-47.0","32","IP","v1.0","null","stimuli/sequence_A5+_500_-15.wav","null","tones","","5","+","-15"
"html-keyboard-response","59","293992","0.0-48.0","32","IP","v1.0","868","Was the final tone (up arrow) higher or (down arrow) lower in pitch?","38","response","","5","+","-15"
"audio-keyboard-response","60","298748","0.0-49.0","32","IP","v1.0","null","stimuli/sequence_A5+_500_0.wav","null","tones","","5","+","0"
"html-keyboard-response","61","300304","0.0-50.0","32","IP","v1.0","1554.9000000059605","Was the final tone (up arrow) higher or (down arrow) lower in pitch?","40","response","","5","+","0"
"audio-keyboard-response","62","305134","0.0-51.0","32","IP","v1.0","null","stimuli/sequence_A5+_500_15.wav","null","tones","","5","+","15"
"html-keyboard-response","63","307736","0.0-52.0","32","IP","v1.0","2601.7000000029802","Was the final tone (up arrow) higher or (down arrow) lower in pitch?","38","response","","5","+","15"
"audio-keyboard-response","64","312413","0.0-53.0","32","IP","v1.0","null","stimuli/sequence_A5-_500_-15.wav","null","tones","","5","-","-15"
"html-keyboard-response","65","313208","0.0-54.0","32","IP","v1.0","793.9000000059605","Was the final tone (up arrow) higher or (down arrow) lower in pitch?","40","response","","5","-","-15"
"audio-keyboard-response","66","317963","0.0-55.0","32","IP","v1.0","null","stimuli/sequence_A5-_500_0.wav","null","tones","","5","-","0"
"html-keyboard-response","67","318656","0.0-56.0","32","IP","v1.0","692.5999999940395","Was the final tone (up arrow) higher or (down arrow) lower in pitch?","38","response","","5","-","0"
"audio-keyboard-response","68","323484","0.0-57.0","32","IP","v1.0","null","stimuli/sequence_A5+_500_15.wav","null","tones","","5","+","15"
"html-keyboard-response","69","326800","0.0-58.0","32","IP","v1.0","3315.800000011921","Was the final tone (up arrow) higher or (down arrow) lower in pitch?","38","response","","5","+","15"
"audio-keyboard-response","70","331553","0.0-59.0","32","IP","v1.0","null","stimuli/sequence_A5-_500_0.wav","null","tones","","5","-","0"
"html-keyboard-response","71","332288","0.0-60.0","32","IP","v1.0","735.0999999940395","Was the final tone (up arrow) higher or (down arrow) lower in pitch?","40","response","","5","-","0"
"audio-keyboard-response","72","337114","0.0-61.0","32","IP","v1.0","null","stimuli/sequence_A5-_500_15.wav","null","tones","","5","-","15"
"html-keyboard-response","73","337729","0.0-62.0","32","IP","v1.0","613.8999999910593","Was the final tone (up arrow) higher or (down arrow) lower in pitch?","38","response","","5","-","15"
"audio-keyboard-response","74","342408","0.0-63.0","32","IP","v1.0","null","stimuli/sequence_A5+_500_-15.wav","null","tones","","5","+","-15"
"html-keyboard-response","75","343185","0.0-64.0","32","IP","v1.0","775.6999999880791","Was the final tone (up arrow) higher or (down arrow) lower in pitch?","38","response","","5","+","-15"
"audio-keyboard-response","76","348016","0.0-65.0","32","IP","v1.0","null","stimuli/sequence_A5-_500_15.wav","null","tones","","5","-","15"
"html-keyboard-response","77","348593","0.0-66.0","32","IP","v1.0","576.0999999940395","Was the final tone (up arrow) higher or (down arrow) lower in pitch?","40","response","","5","-","15"
"audio-keyboard-response","78","353345","0.0-67.0","32","IP","v1.0","null","stimuli/sequence_A5-_500_0.wav","null","tones","","5","-","0"
"html-keyboard-response","79","354257","0.0-68.0","32","IP","v1.0","911.2999999970198","Was the final tone (up arrow) higher or (down arrow) lower in pitch?","40","response","","5","-","0"
"audio-keyboard-response","80","358935","0.0-69.0","32","IP","v1.0","null","stimuli/sequence_A5+_500_-15.wav","null","tones","","5","+","-15"
"html-keyboard-response","81","359977","0.0-70.0","32","IP","v1.0","1040.7999999970198","Was the final tone (up arrow) higher or (down arrow) lower in pitch?","38","response","","5","+","-15"
"audio-keyboard-response","82","364653","0.0-71.0","32","IP","v1.0","null","stimuli/sequence_A5-_500_-15.wav","null","tones","","5","-","-15"
"html-keyboard-response","83","365513","0.0-72.0","32","IP","v1.0","859.1000000089407","Was the final tone (up arrow) higher or (down arrow) lower in pitch?","40","response","","5","-","-15"
"audio-keyboard-response","84","370191","0.0-73.0","32","IP","v1.0","null","stimuli/sequence_A5+_500_-15.wav","null","tones","","5","+","-15"
"html-keyboard-response","85","371153","0.0-74.0","32","IP","v1.0","960.9000000059605","Was the final tone (up arrow) higher or (down arrow) lower in pitch?","38","response","","5","+","-15"
"audio-keyboard-response","86","375985","0.0-75.0","32","IP","v1.0","null","stimuli/sequence_A5+_500_15.wav","null","tones","","5","+","15"
"html-keyboard-response","87","379297","0.0-76.0","32","IP","v1.0","3311.4000000059605","Was the final tone (up arrow) higher or (down arrow) lower in pitch?","40","response","","5","+","15"
"audio-keyboard-response","88","384129","0.0-77.0","32","IP","v1.0","null","stimuli/sequence_A5-_500_15.wav","null","tones","","5","-","15"
"html-keyboard-response","89","386817","0.0-78.0","32","IP","v1.0","2687.2000000029802","Was the final tone (up arrow) higher or (down arrow) lower in pitch?","40","response","","5","-","15"
"audio-keyboard-response","90","391496","0.0-79.0","32","IP","v1.0","null","stimuli/sequence_A5+_500_-15.wav","null","tones","","5","+","-15"
"html-keyboard-response","91","392130","0.0-80.0","32","IP","v1.0","632.7999999970198","Was the final tone (up arrow) higher or (down arrow) lower in pitch?","38","response","","5","+","-15"
"audio-keyboard-response","92","396959","0.0-81.0","32","IP","v1.0","null","stimuli/sequence_A5+_500_15.wav","null","tones","","5","+","15"
"html-keyboard-response","93","398977","0.0-82.0","32","IP","v1.0","2018","Was the final tone (up arrow) higher or (down arrow) lower in pitch?","38","response","","5","+","15"
"audio-keyboard-response","94","403733","0.0-83.0","32","IP","v1.0","null","stimuli/sequence_A5-_500_0.wav","null","tones","","5","-","0"
"html-keyboard-response","95","404754","0.0-84.0","32","IP","v1.0","1019.8999999910593","Was the final tone (up arrow) higher or (down arrow) lower in pitch?","38","response","","5","-","0"
"audio-keyboard-response","96","409503","0.0-85.0","32","IP","v1.0","null","stimuli/sequence_A5+_500_0.wav","null","tones","","5","+","0"
"html-keyboard-response","97","410106","0.0-86.0","32","IP","v1.0","601.5999999940395","Was the final tone (up arrow) higher or (down arrow) lower in pitch?","38","response","","5","+","0"
"audio-keyboard-response","98","414861","0.0-87.0","32","IP","v1.0","null","stimuli/sequence_A5-_500_0.wav","null","tones","","5","-","0"
"html-keyboard-response","99","417130","0.0-88.0","32","IP","v1.0","2267.5999999940395","Was the final tone (up arrow) higher or (down arrow) lower in pitch?","40","response","","5","-","0"
"audio-keyboard-response","100","421961","0.0-89.0","32","IP","v1.0","null","stimuli/sequence_A5-_500_15.wav","null","tones","","5","-","15"
"html-keyboard-response","101","422722","0.0-90.0","32","IP","v1.0","760.0999999940395","Was the final tone (up arrow) higher or (down arrow) lower in pitch?","38","response","","5","-","15"
"audio-keyboard-response","102","427476","0.0-91.0","32","IP","v1.0","null","stimuli/sequence_A5+_500_0.wav","null","tones","","5","+","0"
"html-keyboard-response","103","428290","0.0-92.0","32","IP","v1.0","813.5","Was the final tone (up arrow) higher or (down arrow) lower in pitch?","38","response","","5","+","0"
"audio-keyboard-response","104","433119","0.0-93.0","32","IP","v1.0","null","stimuli/sequence_A5-_500_15.wav","null","tones","","5","-","15"
"html-keyboard-response","105","434002","0.0-94.0","32","IP","v1.0","882.8999999910593","Was the final tone (up arrow) higher or (down arrow) lower in pitch?","40","response","","5","-","15"
"audio-keyboard-response","106","438755","0.0-95.0","32","IP","v1.0","null","stimuli/sequence_A5-_500_0.wav","null","tones","","5","-","0"
"html-keyboard-response","107","439546","0.0-96.0","32","IP","v1.0","790.2999999970198","Was the final tone (up arrow) higher or (down arrow) lower in pitch?","40","response","","5","-","0"
"audio-keyboard-response","108","444299","0.0-97.0","32","IP","v1.0","null","stimuli/sequence_A5-_500_0.wav","null","tones","","5","-","0"
"html-keyboard-response","109","445090","0.0-98.0","32","IP","v1.0","790.1000000089407","Was the final tone (up arrow) higher or (down arrow) lower in pitch?","40","response","","5","-","0"
"audio-keyboard-response","110","449843","0.0-99.0","32","IP","v1.0","null","stimuli/sequence_A5-_500_0.wav","null","tones","","5","-","0"
"html-keyboard-response","111","451299","0.0-100.0","32","IP","v1.0","1454.8999999910593","Was the final tone (up arrow) higher or (down arrow) lower in pitch?","38","response","","5","-","0"
"audio-keyboard-response","112","456130","0.0-101.0","32","IP","v1.0","null","stimuli/sequence_A5-_500_15.wav","null","tones","","5","-","15"
"html-keyboard-response","113","457211","0.0-102.0","32","IP","v1.0","1079.9000000059605","Was the final tone (up arrow) higher or (down arrow) lower in pitch?","40","response","","5","-","15"
"audio-keyboard-response","114","461888","0.0-103.0","32","IP","v1.0","null","stimuli/sequence_A5+_500_-15.wav","null","tones","","5","+","-15"
"html-keyboard-response","115","462539","0.0-104.0","32","IP","v1.0","649.5","Was the final tone (up arrow) higher or (down arrow) lower in pitch?","38","response","","5","+","-15"
"audio-keyboard-response","116","467218","0.0-105.0","32","IP","v1.0","null","stimuli/sequence_A5-_500_-15.wav","null","tones","","5","-","-15"
"html-keyboard-response","117","468115","0.0-106.0","32","IP","v1.0","896.2000000029802","Was the final tone (up arrow) higher or (down arrow) lower in pitch?","40","response","","5","-","-15"
"audio-keyboard-response","118","472941","0.0-107.0","32","IP","v1.0","null","stimuli/sequence_A5+_500_15.wav","null","tones","","5","+","15"
"html-keyboard-response","119","473859","0.0-108.0","32","IP","v1.0","916.7999999970198","Was the final tone (up arrow) higher or (down arrow) lower in pitch?","40","response","","5","+","15"
"audio-keyboard-response","120","478613","0.0-109.0","32","IP","v1.0","null","stimuli/sequence_A5+_500_0.wav","null","tones","","5","+","0"
"html-keyboard-response","121","480211","0.0-110.0","32","IP","v1.0","1596.8999999910593","Was the final tone (up arrow) higher or (down arrow) lower in pitch?","38","response","","5","+","0"
"audio-keyboard-response","122","484964","0.0-111.0","32","IP","v1.0","null","stimuli/sequence_A5-_500_0.wav","null","tones","","5","-","0"
"html-keyboard-response","123","486643","0.0-112.0","32","IP","v1.0","1678.5","Was the final tone (up arrow) higher or (down arrow) lower in pitch?","38","response","","5","-","0"
"audio-keyboard-response","124","491320","0.0-113.0","32","IP","v1.0","null","stimuli/sequence_A5+_500_-15.wav","null","tones","","5","+","-15"
"html-keyboard-response","125","492003","0.0-114.0","32","IP","v1.0","682.0999999940395","Was the final tone (up arrow) higher or (down arrow) lower in pitch?","38","response","","5","+","-15"
"audio-keyboard-response","126","496684","0.0-115.0","32","IP","v1.0","null","stimuli/sequence_A5+_500_-15.wav","null","tones","","5","+","-15"
"html-keyboard-response","127","498323","0.0-116.0","32","IP","v1.0","1638.2999999970198","Was the final tone (up arrow) higher or (down arrow) lower in pitch?","38","response","","5","+","-15"
"audio-keyboard-response","128","503076","0.0-117.0","32","IP","v1.0","null","stimuli/sequence_A5+_500_0.wav","null","tones","","5","+","0"
"html-keyboard-response","129","504028","0.0-118.0","32","IP","v1.0","950.9000000059605","Was the final tone (up arrow) higher or (down arrow) lower in pitch?","38","response","","5","+","0"
"audio-keyboard-response","130","508858","0.0-119.0","32","IP","v1.0","null","stimuli/sequence_A5-_500_15.wav","null","tones","","5","-","15"
"html-keyboard-response","131","510228","0.0-120.0","32","IP","v1.0","1369.4000000059605","Was the final tone (up arrow) higher or (down arrow) lower in pitch?","38","response","","5","-","15"
"audio-keyboard-response","132","515057","0.0-121.0","32","IP","v1.0","null","stimuli/sequence_A5+_500_15.wav","null","tones","","5","+","15"
"html-keyboard-response","133","516172","0.0-122.0","32","IP","v1.0","1113.5","Was the final tone (up arrow) higher or (down arrow) lower in pitch?","38","response","","5","+","15"
"audio-keyboard-response","134","521002","0.0-123.0","32","IP","v1.0","null","stimuli/sequence_A5+_500_15.wav","null","tones","","5","+","15"
"html-keyboard-response","135","521780","0.0-124.0","32","IP","v1.0","777.2999999970198","Was the final tone (up arrow) higher or (down arrow) lower in pitch?","40","response","","5","+","15"
"html-button-response","136","530069","0.0-125.0","32","IP","v1.0","6783.29999999702","<h3>You have completed section 1 of 4!</h3><p>When you are ready to continue, press the button below to begin the next section.</p>","","break","0","","",""
"audio-keyboard-response","137","535398","0.0-126.0","32","IP","v1.0","null","stimuli/sequence_A3-_500_15.wav","null","tones","","3","-","15"
"html-keyboard-response","138","536100","0.0-127.0","32","IP","v1.0","700.8999999910593","Was the final tone (up arrow) higher or (down arrow) lower in pitch?","40","response","","3","-","15"
"audio-keyboard-response","139","540780","0.0-128.0","32","IP","v1.0","null","stimuli/sequence_A3-_500_-15.wav","null","tones","","3","-","-15"
"html-keyboard-response","140","541316","0.0-129.0","32","IP","v1.0","535.4000000059605","Was the final tone (up arrow) higher or (down arrow) lower in pitch?","38","response","","3","-","-15"
"audio-keyboard-response","141","546068","0.0-130.0","32","IP","v1.0","null","stimuli/sequence_A3+_500_0.wav","null","tones","","3","+","0"
"html-keyboard-response","142","546628","0.0-131.0","32","IP","v1.0","559.1999999880791","Was the final tone (up arrow) higher or (down arrow) lower in pitch?","40","response","","3","+","0"
"audio-keyboard-response","143","551380","0.0-132.0","32","IP","v1.0","null","stimuli/sequence_A3+_500_0.wav","null","tones","","3","+","0"
"html-keyboard-response","144","551860","0.0-133.0","32","IP","v1.0","479.5","Was the final tone (up arrow) higher or (down arrow) lower in pitch?","40","response","","3","+","0"
"audio-keyboard-response","145","556692","0.0-134.0","32","IP","v1.0","null","stimuli/sequence_A3+_500_15.wav","null","tones","","3","+","15"
"html-keyboard-response","146","557157","0.0-135.0","32","IP","v1.0","464.09999999403954","Was the final tone (up arrow) higher or (down arrow) lower in pitch?","38","response","","3","+","15"
"audio-keyboard-response","147","561835","0.0-136.0","32","IP","v1.0","null","stimuli/sequence_A3-_500_-15.wav","null","tones","","3","-","-15"
"html-keyboard-response","148","563901","0.0-137.0","32","IP","v1.0","2064.7999999970198","Was the final tone (up arrow) higher or (down arrow) lower in pitch?","40","response","","3","-","-15"
"audio-keyboard-response","149","568656","0.0-138.0","32","IP","v1.0","null","stimuli/sequence_A3+_500_0.wav","null","tones","","3","+","0"
"html-keyboard-response","150","573045","0.0-139.0","32","IP","v1.0","4388.20000000298","Was the final tone (up arrow) higher or (down arrow) lower in pitch?","38","response","","3","+","0"
"audio-keyboard-response","151","577723","0.0-140.0","32","IP","v1.0","null","stimuli/sequence_A3+_500_-15.wav","null","tones","","3","+","-15"
"html-keyboard-response","152","578045","0.0-141.0","32","IP","v1.0","320.40000000596046","Was the final tone (up arrow) higher or (down arrow) lower in pitch?","40","response","","3","+","-15"
"audio-keyboard-response","153","582873","0.0-142.0","32","IP","v1.0","null","stimuli/sequence_A3+_500_15.wav","null","tones","","3","+","15"
"html-keyboard-response","154","584229","0.0-143.0","32","IP","v1.0","1355.5999999940395","Was the final tone (up arrow) higher or (down arrow) lower in pitch?","38","response","","3","+","15"
"audio-keyboard-response","155","589061","0.0-144.0","32","IP","v1.0","null","stimuli/sequence_A3+_500_15.wav","null","tones","","3","+","15"
"html-keyboard-response","156","589469","0.0-145.0","32","IP","v1.0","407.30000001192093","Was the final tone (up arrow) higher or (down arrow) lower in pitch?","40","response","","3","+","15"
"audio-keyboard-response","157","594297","0.0-146.0","32","IP","v1.0","null","stimuli/sequence_A3+_500_15.wav","null","tones","","3","+","15"
"html-keyboard-response","158","594813","0.0-147.0","32","IP","v1.0","515.5","Was the final tone (up arrow) higher or (down arrow) lower in pitch?","40","response","","3","+","15"
"audio-keyboard-response","159","599492","0.0-148.0","32","IP","v1.0","null","stimuli/sequence_A3-_500_-15.wav","null","tones","","3","-","-15"
"html-keyboard-response","160","601581","0.0-149.0","32","IP","v1.0","2087.7000000029802","Was the final tone (up arrow) higher or (down arrow) lower in pitch?","40","response","","3","-","-15"
"audio-keyboard-response","161","606261","0.0-150.0","32","IP","v1.0","null","stimuli/sequence_A3-_500_-15.wav","null","tones","","3","-","-15"
"html-keyboard-response","162","606565","0.0-151.0","32","IP","v1.0","303.20000000298023","Was the final tone (up arrow) higher or (down arrow) lower in pitch?","38","response","","3","-","-15"
"audio-keyboard-response","163","611393","0.0-152.0","32","IP","v1.0","null","stimuli/sequence_A3-_500_15.wav","null","tones","","3","-","15"
"html-keyboard-response","164","611870","0.0-153.0","32","IP","v1.0","475.69999998807907","Was the final tone (up arrow) higher or (down arrow) lower in pitch?","40","response","","3","-","15"
"audio-keyboard-response","165","616623","0.0-154.0","32","IP","v1.0","null","stimuli/sequence_A3-_500_0.wav","null","tones","","3","-","0"
"html-keyboard-response","166","618566","0.0-155.0","32","IP","v1.0","1941.5","Was the final tone (up arrow) higher or (down arrow) lower in pitch?","38","response","","3","-","0"
"audio-keyboard-response","167","623247","0.0-156.0","32","IP","v1.0","null","stimuli/sequence_A3+_500_-15.wav","null","tones","","3","+","-15"
"html-keyboard-response","168","623982","0.0-157.0","32","IP","v1.0","733.8000000119209","Was the final tone (up arrow) higher or (down arrow) lower in pitch?","40","response","","3","+","-15"
"audio-keyboard-response","169","628663","0.0-158.0","32","IP","v1.0","null","stimuli/sequence_A3-_500_-15.wav","null","tones","","3","-","-15"
"html-keyboard-response","170","630102","0.0-159.0","32","IP","v1.0","1437.7999999970198","Was the final tone (up arrow) higher or (down arrow) lower in pitch?","40","response","","3","-","-15"
"audio-keyboard-response","171","634857","0.0-160.0","32","IP","v1.0","null","stimuli/sequence_A3-_500_0.wav","null","tones","","3","-","0"
"html-keyboard-response","172","636518","0.0-161.0","32","IP","v1.0","1659.7999999970198","Was the final tone (up arrow) higher or (down arrow) lower in pitch?","40","response","","3","-","0"
"audio-keyboard-response","173","641196","0.0-162.0","32","IP","v1.0","null","stimuli/sequence_A3-_500_-15.wav","null","tones","","3","-","-15"
"html-keyboard-response","174","641822","0.0-163.0","32","IP","v1.0","625","Was the final tone (up arrow) higher or (down arrow) lower in pitch?","40","response","","3","-","-15"
"audio-keyboard-response","175","646653","0.0-164.0","32","IP","v1.0","null","stimuli/sequence_A3-_500_15.wav","null","tones","","3","-","15"
"html-keyboard-response","176","647262","0.0-165.0","32","IP","v1.0","608","Was the final tone (up arrow) higher or (down arrow) lower in pitch?","38","response","","3","-","15"
"audio-keyboard-response","177","652017","0.0-166.0","32","IP","v1.0","null","stimuli/sequence_A3-_500_0.wav","null","tones","","3","-","0"
"html-keyboard-response","178","652670","0.0-167.0","32","IP","v1.0","652.2999999970198","Was the final tone (up arrow) higher or (down arrow) lower in pitch?","40","response","","3","-","0"
"audio-keyboard-response","179","657346","0.0-168.0","32","IP","v1.0","null","stimuli/sequence_A3-_500_-15.wav","null","tones","","3","-","-15"
"html-keyboard-response","180","657966","0.0-169.0","32","IP","v1.0","619.2000000029802","Was the final tone (up arrow) higher or (down arrow) lower in pitch?","38","response","","3","-","-15"
"audio-keyboard-response","181","662646","0.0-170.0","32","IP","v1.0","null","stimuli/sequence_A3+_500_-15.wav","null","tones","","3","+","-15"
"html-keyboard-response","182","663463","0.0-171.0","32","IP","v1.0","814.9000000059605","Was the final tone (up arrow) higher or (down arrow) lower in pitch?","40","response","","3","+","-15"
"audio-keyboard-response","183","668294","0.0-172.0","32","IP","v1.0","null","stimuli/sequence_A3+_500_15.wav","null","tones","","3","+","15"
"html-keyboard-response","184","670302","0.0-173.0","32","IP","v1.0","2007.1000000089407","Was the final tone (up arrow) higher or (down arrow) lower in pitch?","40","response","","3","+","15"
"audio-keyboard-response","185","675133","0.0-174.0","32","IP","v1.0","null","stimuli/sequence_A3-_500_15.wav","null","tones","","3","-","15"
"html-keyboard-response","186","675695","0.0-175.0","32","IP","v1.0","560.8999999910593","Was the final tone (up arrow) higher or (down arrow) lower in pitch?","38","response","","3","-","15"
"audio-keyboard-response","187","680444","0.0-176.0","32","IP","v1.0","null","stimuli/sequence_A3-_500_0.wav","null","tones","","3","-","0"
"html-keyboard-response","188","681327","0.0-177.0","32","IP","v1.0","881.2000000029802","Was the final tone (up arrow) higher or (down arrow) lower in pitch?","40","response","","3","-","0"
"audio-keyboard-response","189","686157","0.0-178.0","32","IP","v1.0","null","stimuli/sequence_A3+_500_15.wav","null","tones","","3","+","15"
"html-keyboard-response","190","689159","0.0-179.0","32","IP","v1.0","3001.2999999970198","Was the final tone (up arrow) higher or (down arrow) lower in pitch?","40","response","","3","+","15"
"audio-keyboard-response","191","693837","0.0-180.0","32","IP","v1.0","null","stimuli/sequence_A3+_500_-15.wav","null","tones","","3","+","-15"
"html-keyboard-response","192","694823","0.0-181.0","32","IP","v1.0","985.2999999970198","Was the final tone (up arrow) higher or (down arrow) lower in pitch?","38","response","","3","+","-15"
"audio-keyboard-response","193","699654","0.0-182.0","32","IP","v1.0","null","stimuli/sequence_A3-_500_15.wav","null","tones","","3","-","15"
"html-keyboard-response","194","700159","0.0-183.0","32","IP","v1.0","504.69999998807907","Was the final tone (up arrow) higher or (down arrow) lower in pitch?","40","response","","3","-","15"
"audio-keyboard-response","195","704913","0.0-184.0","32","IP","v1.0","null","stimuli/sequence_A3+_500_0.wav","null","tones","","3","+","0"
"html-keyboard-response","196","706151","0.0-185.0","32","IP","v1.0","1237.2000000029802","Was the final tone (up arrow) higher or (down arrow) lower in pitch?","40","response","","3","+","0"
"audio-keyboard-response","197","710979","0.0-186.0","32","IP","v1.0","null","stimuli/sequence_A3+_500_15.wav","null","tones","","3","+","15"
"html-keyboard-response","198","712735","0.0-187.0","32","IP","v1.0","1755.199999988079","Was the final tone (up arrow) higher or (down arrow) lower in pitch?","38","response","","3","+","15"
"audio-keyboard-response","199","717411","0.0-188.0","32","IP","v1.0","null","stimuli/sequence_A3-_500_-15.wav","null","tones","","3","-","-15"
"html-keyboard-response","200","718607","0.0-189.0","32","IP","v1.0","1195.0999999940395","Was the final tone (up arrow) higher or (down arrow) lower in pitch?","40","response","","3","-","-15"
"audio-keyboard-response","201","723286","0.0-190.0","32","IP","v1.0","null","stimuli/sequence_A3+_500_-15.wav","null","tones","","3","+","-15"
"html-keyboard-response","202","724312","0.0-191.0","32","IP","v1.0","1024.5999999940395","Was the final tone (up arrow) higher or (down arrow) lower in pitch?","40","response","","3","+","-15"
"audio-keyboard-response","203","729143","0.0-192.0","32","IP","v1.0","null","stimuli/sequence_A3-_500_15.wav","null","tones","","3","-","15"
"html-keyboard-response","204","729736","0.0-193.0","32","IP","v1.0","591.2999999970198","Was the final tone (up arrow) higher or (down arrow) lower in pitch?","40","response","","3","-","15"
"audio-keyboard-response","205","734414","0.0-194.0","32","IP","v1.0","null","stimuli/sequence_A3-_500_-15.wav","null","tones","","3","-","-15"
"html-keyboard-response","206","735344","0.0-195.0","32","IP","v1.0","928.5","Was the final tone (up arrow) higher or (down arrow) lower in pitch?","40","response","","3","-","-15"
"audio-keyboard-response","207","740173","0.0-196.0","32","IP","v1.0","null","stimuli/sequence_A3+_500_15.wav","null","tones","","3","+","15"
"html-keyboard-response","208","741072","0.0-197.0","32","IP","v1.0","897.7999999970198","Was the final tone (up arrow) higher or (down arrow) lower in pitch?","40","response","","3","+","15"
"audio-keyboard-response","209","745752","0.0-198.0","32","IP","v1.0","null","stimuli/sequence_A3+_500_-15.wav","null","tones","","3","+","-15"
"html-keyboard-response","210","746208","0.0-199.0","32","IP","v1.0","455.20000000298023","Was the final tone (up arrow) higher or (down arrow) lower in pitch?","38","response","","3","+","-15"
"audio-keyboard-response","211","751034","0.0-200.0","32","IP","v1.0","null","stimuli/sequence_A3-_500_15.wav","null","tones","","3","-","15"
"html-keyboard-response","212","751568","0.0-201.0","32","IP","v1.0","532.6000000089407","Was the final tone (up arrow) higher or (down arrow) lower in pitch?","40","response","","3","-","15"
"audio-keyboard-response","213","756323","0.0-202.0","32","IP","v1.0","null","stimuli/sequence_A3-_500_0.wav","null","tones","","3","-","0"
"html-keyboard-response","214","758056","0.0-203.0","32","IP","v1.0","1732.3999999910593","Was the final tone (up arrow) higher or (down arrow) lower in pitch?","40","response","","3","-","0"
"audio-keyboard-response","215","762732","0.0-204.0","32","IP","v1.0","null","stimuli/sequence_A3+_500_-15.wav","null","tones","","3","+","-15"
"html-keyboard-response","216","763288","0.0-205.0","32","IP","v1.0","555.3999999910593","Was the final tone (up arrow) higher or (down arrow) lower in pitch?","38","response","","3","+","-15"
"audio-keyboard-response","217","768119","0.0-206.0","32","IP","v1.0","null","stimuli/sequence_A3-_500_15.wav","null","tones","","3","-","15"
"html-keyboard-response","218","768688","0.0-207.0","32","IP","v1.0","568.6999999880791","Was the final tone (up arrow) higher or (down arrow) lower in pitch?","40","response","","3","-","15"
"audio-keyboard-response","219","773442","0.0-208.0","32","IP","v1.0","null","stimuli/sequence_A3-_500_0.wav","null","tones","","3","-","0"
"html-keyboard-response","220","774016","0.0-209.0","32","IP","v1.0","573.4000000059605","Was the final tone (up arrow) higher or (down arrow) lower in pitch?","38","response","","3","-","0"
"audio-keyboard-response","221","778765","0.0-210.0","32","IP","v1.0","null","stimuli/sequence_A3+_500_0.wav","null","tones","","3","+","0"
"html-keyboard-response","222","779417","0.0-211.0","32","IP","v1.0","650.2999999970198","Was the final tone (up arrow) higher or (down arrow) lower in pitch?","40","response","","3","+","0"
"audio-keyboard-response","223","784170","0.0-212.0","32","IP","v1.0","null","stimuli/sequence_A3+_500_0.wav","null","tones","","3","+","0"
"html-keyboard-response","224","784736","0.0-213.0","32","IP","v1.0","565.6000000089407","Was the final tone (up arrow) higher or (down arrow) lower in pitch?","40","response","","3","+","0"
"audio-keyboard-response","225","789418","0.0-214.0","32","IP","v1.0","null","stimuli/sequence_A3-_500_-15.wav","null","tones","","3","-","-15"
"html-keyboard-response","226","790041","0.0-215.0","32","IP","v1.0","622.0999999940395","Was the final tone (up arrow) higher or (down arrow) lower in pitch?","40","response","","3","-","-15"
"audio-keyboard-response","227","794793","0.0-216.0","32","IP","v1.0","null","stimuli/sequence_A3-_500_0.wav","null","tones","","3","-","0"
"html-keyboard-response","228","796057","0.0-217.0","32","IP","v1.0","1262.5","Was the final tone (up arrow) higher or (down arrow) lower in pitch?","40","response","","3","-","0"
"audio-keyboard-response","229","800738","0.0-218.0","32","IP","v1.0","null","stimuli/sequence_A3+_500_-15.wav","null","tones","","3","+","-15"
"html-keyboard-response","230","801441","0.0-219.0","32","IP","v1.0","702.3999999910593","Was the final tone (up arrow) higher or (down arrow) lower in pitch?","40","response","","3","+","-15"
"audio-keyboard-response","231","806270","0.0-220.0","32","IP","v1.0","null","stimuli/sequence_A3-_500_15.wav","null","tones","","3","-","15"
"html-keyboard-response","232","808425","0.0-221.0","32","IP","v1.0","2154","Was the final tone (up arrow) higher or (down arrow) lower in pitch?","40","response","","3","-","15"
"audio-keyboard-response","233","813178","0.0-222.0","32","IP","v1.0","null","stimuli/sequence_A3-_500_0.wav","null","tones","","3","-","0"
"html-keyboard-response","234","814201","0.0-223.0","32","IP","v1.0","1022.3999999910593","Was the final tone (up arrow) higher or (down arrow) lower in pitch?","40","response","","3","-","0"
"audio-keyboard-response","235","819029","0.0-224.0","32","IP","v1.0","null","stimuli/sequence_A3+_500_15.wav","null","tones","","3","+","15"
"html-keyboard-response","236","819977","0.0-225.0","32","IP","v1.0","946.7999999970198","Was the final tone (up arrow) higher or (down arrow) lower in pitch?","40","response","","3","+","15"
"audio-keyboard-response","237","824730","0.0-226.0","32","IP","v1.0","null","stimuli/sequence_A3+_500_0.wav","null","tones","","3","+","0"
"html-keyboard-response","238","825873","0.0-227.0","32","IP","v1.0","1142.3999999910593","Was the final tone (up arrow) higher or (down arrow) lower in pitch?","40","response","","3","+","0"
"audio-keyboard-response","239","830553","0.0-228.0","32","IP","v1.0","null","stimuli/sequence_A3+_500_-15.wav","null","tones","","3","+","-15"
"html-keyboard-response","240","830945","0.0-229.0","32","IP","v1.0","391.90000000596046","Was the final tone (up arrow) higher or (down arrow) lower in pitch?","38","response","","3","+","-15"
"audio-keyboard-response","241","835777","0.0-230.0","32","IP","v1.0","null","stimuli/sequence_A3+_500_15.wav","null","tones","","3","+","15"
"html-keyboard-response","242","836274","0.0-231.0","32","IP","v1.0","495.40000000596046","Was the final tone (up arrow) higher or (down arrow) lower in pitch?","40","response","","3","+","15"
"audio-keyboard-response","243","841100","0.0-232.0","32","IP","v1.0","null","stimuli/sequence_A3-_500_15.wav","null","tones","","3","-","15"
"html-keyboard-response","244","842050","0.0-233.0","32","IP","v1.0","948.2000000029802","Was the final tone (up arrow) higher or (down arrow) lower in pitch?","40","response","","3","-","15"
"audio-keyboard-response","245","846801","0.0-234.0","32","IP","v1.0","null","stimuli/sequence_A3-_500_0.wav","null","tones","","3","-","0"
"html-keyboard-response","246","847090","0.0-235.0","32","IP","v1.0","287.79999999701977","Was the final tone (up arrow) higher or (down arrow) lower in pitch?","38","response","","3","-","0"
"audio-keyboard-response","247","851846","0.0-236.0","32","IP","v1.0","null","stimuli/sequence_A3+_500_0.wav","null","tones","","3","+","0"
"html-keyboard-response","248","852274","0.0-237.0","32","IP","v1.0","427.19999998807907","Was the final tone (up arrow) higher or (down arrow) lower in pitch?","40","response","","3","+","0"
"audio-keyboard-response","249","856954","0.0-238.0","32","IP","v1.0","null","stimuli/sequence_A3+_500_-15.wav","null","tones","","3","+","-15"
"html-keyboard-response","250","857666","0.0-239.0","32","IP","v1.0","710.7999999970198","Was the final tone (up arrow) higher or (down arrow) lower in pitch?","38","response","","3","+","-15"
"audio-keyboard-response","251","862423","0.0-240.0","32","IP","v1.0","null","stimuli/sequence_A3+_500_0.wav","null","tones","","3","+","0"
"html-keyboard-response","252","862986","0.0-241.0","32","IP","v1.0","562.5999999940395","Was the final tone (up arrow) higher or (down arrow) lower in pitch?","40","response","","3","+","0"
"audio-keyboard-response","253","867740","0.0-242.0","32","IP","v1.0","null","stimuli/sequence_A3+_500_0.wav","null","tones","","3","+","0"
"html-keyboard-response","254","868858","0.0-243.0","32","IP","v1.0","1117.2999999970198","Was the final tone (up arrow) higher or (down arrow) lower in pitch?","40","response","","3","+","0"
"audio-keyboard-response","255","873609","0.0-244.0","32","IP","v1.0","null","stimuli/sequence_A3-_500_0.wav","null","tones","","3","-","0"
"html-keyboard-response","256","874730","0.0-245.0","32","IP","v1.0","1120.2999999970198","Was the final tone (up arrow) higher or (down arrow) lower in pitch?","40","response","","3","-","0"
"html-button-response","257","878819","0.0-246.0","32","IP","v1.0","2584.0999999940395","<h3>You have completed section 2 of 4!</h3><p>When you are ready to continue, press the button below to begin the next section.</p>","","break","0","","",""
"audio-keyboard-response","258","884075","0.0-247.0","32","IP","v1.0","null","stimuli/sequence_A5+_500_0.wav","null","tones","","5","+","0"
"html-keyboard-response","259","886059","0.0-248.0","32","IP","v1.0","1982.2000000029802","Was the final tone (up arrow) higher or (down arrow) lower in pitch?","38","response","","5","+","0"
"audio-keyboard-response","260","890885","0.0-249.0","32","IP","v1.0","null","stimuli/sequence_A5-_500_15.wav","null","tones","","5","-","15"
"html-keyboard-response","261","891266","0.0-250.0","32","IP","v1.0","380.6000000089407","Was the final tone (up arrow) higher or (down arrow) lower in pitch?","40","response","","5","-","15"
"audio-keyboard-response","262","895947","0.0-251.0","32","IP","v1.0","null","stimuli/sequence_A5+_500_-15.wav","null","tones","","5","+","-15"
"html-keyboard-response","263","896451","0.0-252.0","32","IP","v1.0","502.70000000298023","Was the final tone (up arrow) higher or (down arrow) lower in pitch?","38","response","","5","+","-15"
"audio-keyboard-response","264","901282","0.0-253.0","32","IP","v1.0","null","stimuli/sequence_A5+_500_15.wav","null","tones","","5","+","15"
"html-keyboard-response","265","903283","0.0-254.0","32","IP","v1.0","2000","Was the final tone (up arrow) higher or (down arrow) lower in pitch?","38","response","","5","+","15"
"audio-keyboard-response","266","907958","0.0-255.0","32","IP","v1.0","null","stimuli/sequence_A5+_500_-15.wav","null","tones","","5","+","-15"
"html-keyboard-response","267","908339","0.0-256.0","32","IP","v1.0","380.20000000298023","Was the final tone (up arrow) higher or (down arrow) lower in pitch?","38","response","","5","+","-15"
"audio-keyboard-response","268","913171","0.0-257.0","32","IP","v1.0","null","stimuli/sequence_A5+_500_15.wav","null","tones","","5","+","15"
"html-keyboard-response","269","914883","0.0-258.0","32","IP","v1.0","1711.2000000029802","Was the final tone (up arrow) higher or (down arrow) lower in pitch?","40","response","","5","+","15"
"audio-keyboard-response","270","919562","0.0-259.0","32","IP","v1.0","null","stimuli/sequence_A5+_500_-15.wav","null","tones","","5","+","-15"
"html-keyboard-response","271","920203","0.0-260.0","32","IP","v1.0","640.0999999940395","Was the final tone (up arrow) higher or (down arrow) lower in pitch?","38","response","","5","+","-15"
"audio-keyboard-response","272","924880","0.0-261.0","32","IP","v1.0","null","stimuli/sequence_A5-_500_-15.wav","null","tones","","5","-","-15"
"html-keyboard-response","273","926123","0.0-262.0","32","IP","v1.0","1242.5999999940395","Was the final tone (up arrow) higher or (down arrow) lower in pitch?","40","response","","5","-","-15"
"audio-keyboard-response","274","930801","0.0-263.0","32","IP","v1.0","null","stimuli/sequence_A5-_500_-15.wav","null","tones","","5","-","-15"
"html-keyboard-response","275","932883","0.0-264.0","32","IP","v1.0","2081.699999988079","Was the final tone (up arrow) higher or (down arrow) lower in pitch?","40","response","","5","-","-15"
"audio-keyboard-response","276","937715","0.0-265.0","32","IP","v1.0","null","stimuli/sequence_A5+_500_15.wav","null","tones","","5","+","15"
"html-keyboard-response","277","939155","0.0-266.0","32","IP","v1.0","1439.7999999970198","Was the final tone (up arrow) higher or (down arrow) lower in pitch?","38","response","","5","+","15"
"audio-keyboard-response","278","943833","0.0-267.0","32","IP","v1.0","null","stimuli/sequence_A5-_500_-15.wav","null","tones","","5","-","-15"
"html-keyboard-response","279","944347","0.0-268.0","32","IP","v1.0","512.5999999940395","Was the final tone (up arrow) higher or (down arrow) lower in pitch?","40","response","","5","-","-15"
"audio-keyboard-response","280","949029","0.0-269.0","32","IP","v1.0","null","stimuli/sequence_A5-_500_-15.wav","null","tones","","5","-","-15"
"html-keyboard-response","281","950476","0.0-270.0","32","IP","v1.0","1445.7999999970198","Was the final tone (up arrow) higher or (down arrow) lower in pitch?","40","response","","5","-","-15"
"audio-keyboard-response","282","955229","0.0-271.0","32","IP","v1.0","null","stimuli/sequence_A5-_500_0.wav","null","tones","","5","-","0"
"html-keyboard-response","283","956772","0.0-272.0","32","IP","v1.0","1542.199999988079","Was the final tone (up arrow) higher or (down arrow) lower in pitch?","40","response","","5","-","0"
"audio-keyboard-response","284","961527","0.0-273.0","32","IP","v1.0","null","stimuli/sequence_A5+_500_0.wav","null","tones","","5","+","0"
"html-keyboard-response","285","962092","0.0-274.0","32","IP","v1.0","563.7000000029802","Was the final tone (up arrow) higher or (down arrow) lower in pitch?","38","response","","5","+","0"
"audio-keyboard-response","286","966844","0.0-275.0","32","IP","v1.0","null","stimuli/sequence_A5+_500_0.wav","null","tones","","5","+","0"
"html-keyboard-response","287","967620","0.0-276.0","32","IP","v1.0","774.5","Was the final tone (up arrow) higher or (down arrow) lower in pitch?","40","response","","5","+","0"
"audio-keyboard-response","288","972371","0.0-277.0","32","IP","v1.0","null","stimuli/sequence_A5+_500_0.wav","null","tones","","5","+","0"
"html-keyboard-response","289","974836","0.0-278.0","32","IP","v1.0","2464","Was the final tone (up arrow) higher or (down arrow) lower in pitch?","38","response","","5","+","0"
"audio-keyboard-response","290","979511","0.0-279.0","32","IP","v1.0","null","stimuli/sequence_A5-_500_-15.wav","null","tones","","5","-","-15"
"html-keyboard-response","291","980292","0.0-280.0","32","IP","v1.0","780","Was the final tone (up arrow) higher or (down arrow) lower in pitch?","40","response","","5","-","-15"
"audio-keyboard-response","292","985119","0.0-281.0","32","IP","v1.0","null","stimuli/sequence_A5-_500_15.wav","null","tones","","5","-","15"
"html-keyboard-response","293","986940","0.0-282.0","32","IP","v1.0","1820.2000000029802","Was the final tone (up arrow) higher or (down arrow) lower in pitch?","38","response","","5","-","15"
"audio-keyboard-response","294","991696","0.0-283.0","32","IP","v1.0","null","stimuli/sequence_A5+_500_0.wav","null","tones","","5","+","0"
"html-keyboard-response","295","992604","0.0-284.0","32","IP","v1.0","907.1999999880791","Was the final tone (up arrow) higher or (down arrow) lower in pitch?","38","response","","5","+","0"
"audio-keyboard-response","296","997281","0.0-285.0","32","IP","v1.0","null","stimuli/sequence_A5+_500_-15.wav","null","tones","","5","+","-15"
"html-keyboard-response","297","998076","0.0-286.0","32","IP","v1.0","794.8999999910593","Was the final tone (up arrow) higher or (down arrow) lower in pitch?","40","response","","5","+","-15"
"audio-keyboard-response","298","1002830","0.0-287.0","32","IP","v1.0","null","stimuli/sequence_A5-_500_0.wav","null","tones","","5","-","0"
"html-keyboard-response","299","1004469","0.0-288.0","32","IP","v1.0","1637.4000000059605","Was the final tone (up arrow) higher or (down arrow) lower in pitch?","40","response","","5","-","0"
"audio-keyboard-response","300","1009222","0.0-289.0","32","IP","v1.0","null","stimuli/sequence_A5-_500_0.wav","null","tones","","5","-","0"
"html-keyboard-response","301","1010204","0.0-290.0","32","IP","v1.0","981.7000000029802","Was the final tone (up arrow) higher or (down arrow) lower in pitch?","38","response","","5","-","0"
"audio-keyboard-response","302","1014882","0.0-291.0","32","IP","v1.0","null","stimuli/sequence_A5-_500_-15.wav","null","tones","","5","-","-15"
"html-keyboard-response","303","1015965","0.0-292.0","32","IP","v1.0","1082","Was the final tone (up arrow) higher or (down arrow) lower in pitch?","38","response","","5","-","-15"
"audio-keyboard-response","304","1020646","0.0-293.0","32","IP","v1.0","null","stimuli/sequence_A5-_500_-15.wav","null","tones","","5","-","-15"
"html-keyboard-response","305","1021613","0.0-294.0","32","IP","v1.0","965.5999999940395","Was the final tone (up arrow) higher or (down arrow) lower in pitch?","38","response","","5","-","-15"
"audio-keyboard-response","306","1026440","0.0-295.0","32","IP","v1.0","null","stimuli/sequence_A5+_500_15.wav","null","tones","","5","+","15"
"html-keyboard-response","307","1029821","0.0-296.0","32","IP","v1.0","3380.2999999970198","Was the final tone (up arrow) higher or (down arrow) lower in pitch?","38","response","","5","+","15"
"audio-keyboard-response","308","1034573","0.0-297.0","32","IP","v1.0","null","stimuli/sequence_A5-_500_0.wav","null","tones","","5","-","0"
"html-keyboard-response","309","1035333","0.0-298.0","32","IP","v1.0","759.6999999880791","Was the final tone (up arrow) higher or (down arrow) lower in pitch?","38","response","","5","-","0"
"audio-keyboard-response","310","1040087","0.0-299.0","32","IP","v1.0","null","stimuli/sequence_A5+_500_0.wav","null","tones","","5","+","0"
"html-keyboard-response","311","1040997","0.0-300.0","32","IP","v1.0","908.7999999970198","Was the final tone (up arrow) higher or (down arrow) lower in pitch?","40","response","","5","+","0"
"audio-keyboard-response","312","1045829","0.0-301.0","32","IP","v1.0","null","stimuli/sequence_A5-_500_15.wav","null","tones","","5","-","15"
"html-keyboard-response","313","1046253","0.0-302.0","32","IP","v1.0","423.6000000089407","Was the final tone (up arrow) higher or (down arrow) lower in pitch?","40","response","","5","-","15"
"audio-keyboard-response","314","1051082","0.0-303.0","32","IP","v1.0","null","stimuli/sequence_A5+_500_15.wav","null","tones","","5","+","15"
"html-keyboard-response","315","1051573","0.0-304.0","32","IP","v1.0","490.20000000298023","Was the final tone (up arrow) higher or (down arrow) lower in pitch?","38","response","","5","+","15"
"audio-keyboard-response","316","1056405","0.0-305.0","32","IP","v1.0","null","stimuli/sequence_A5+_500_15.wav","null","tones","","5","+","15"
"html-keyboard-response","317","1057197","0.0-306.0","32","IP","v1.0","791.0999999940395","Was the final tone (up arrow) higher or (down arrow) lower in pitch?","38","response","","5","+","15"
"audio-keyboard-response","318","1061949","0.0-307.0","32","IP","v1.0","null","stimuli/sequence_A5-_500_0.wav","null","tones","","5","-","0"
"html-keyboard-response","319","1063630","0.0-308.0","32","IP","v1.0","1679.2999999970198","Was the final tone (up arrow) higher or (down arrow) lower in pitch?","40","response","","5","-","0"
"audio-keyboard-response","320","1068306","0.0-309.0","32","IP","v1.0","null","stimuli/sequence_A5+_500_-15.wav","null","tones","","5","+","-15"
"html-keyboard-response","321","1069726","0.0-310.0","32","IP","v1.0","1418.7999999970198","Was the final tone (up arrow) higher or (down arrow) lower in pitch?","38","response","","5","+","-15"
"audio-keyboard-response","322","1074477","0.0-311.0","32","IP","v1.0","null","stimuli/sequence_A5-_500_0.wav","null","tones","","5","-","0"
"html-keyboard-response","323","1075214","0.0-312.0","32","IP","v1.0","736.0999999940395","Was the final tone (up arrow) higher or (down arrow) lower in pitch?","40","response","","5","-","0"
"audio-keyboard-response","324","1079968","0.0-313.0","32","IP","v1.0","null","stimuli/sequence_A5+_500_0.wav","null","tones","","5","+","0"
"html-keyboard-response","325","1080302","0.0-314.0","32","IP","v1.0","332.40000000596046","Was the final tone (up arrow) higher or (down arrow) lower in pitch?","38","response","","5","+","0"
"audio-keyboard-response","326","1084978","0.0-315.0","32","IP","v1.0","null","stimuli/sequence_A5+_500_-15.wav","null","tones","","5","+","-15"
"html-keyboard-response","327","1085350","0.0-316.0","32","IP","v1.0","371","Was the final tone (up arrow) higher or (down arrow) lower in pitch?","38","response","","5","+","-15"
"audio-keyboard-response","328","1090180","0.0-317.0","32","IP","v1.0","null","stimuli/sequence_A5-_500_15.wav","null","tones","","5","-","15"
"html-keyboard-response","329","1091254","0.0-318.0","32","IP","v1.0","1073.5999999940395","Was the final tone (up arrow) higher or (down arrow) lower in pitch?","40","response","","5","-","15"
"audio-keyboard-response","330","1096008","0.0-319.0","32","IP","v1.0","null","stimuli/sequence_A5+_500_0.wav","null","tones","","5","+","0"
"html-keyboard-response","331","1097126","0.0-320.0","32","IP","v1.0","1117.5","Was the final tone (up arrow) higher or (down arrow) lower in pitch?","38","response","","5","+","0"
"audio-keyboard-response","332","1101883","0.0-321.0","32","IP","v1.0","null","stimuli/sequence_A5+_500_0.wav","null","tones","","5","+","0"
"html-keyboard-response","333","1102870","0.0-322.0","32","IP","v1.0","986.7000000029802","Was the final tone (up arrow) higher or (down arrow) lower in pitch?","38","response","","5","+","0"
"audio-keyboard-response","334","1107699","0.0-323.0","32","IP","v1.0","null","stimuli/sequence_A5+_500_15.wav","null","tones","","5","+","15"
"html-keyboard-response","335","1108398","0.0-324.0","32","IP","v1.0","698.1999999880791","Was the final tone (up arrow) higher or (down arrow) lower in pitch?","40","response","","5","+","15"
"audio-keyboard-response","336","1113150","0.0-325.0","32","IP","v1.0","null","stimuli/sequence_A5-_500_0.wav","null","tones","","5","-","0"
"html-keyboard-response","337","1114054","0.0-326.0","32","IP","v1.0","903.1000000089407","Was the final tone (up arrow) higher or (down arrow) lower in pitch?","40","response","","5","-","0"
"audio-keyboard-response","338","1118886","0.0-327.0","32","IP","v1.0","null","stimuli/sequence_A5+_500_15.wav","null","tones","","5","+","15"
"html-keyboard-response","339","1119847","0.0-328.0","32","IP","v1.0","960.2000000029802","Was the final tone (up arrow) higher or (down arrow) lower in pitch?","38","response","","5","+","15"
"audio-keyboard-response","340","1124673","0.0-329.0","32","IP","v1.0","null","stimuli/sequence_A5-_500_15.wav","null","tones","","5","-","15"
"html-keyboard-response","341","1125727","0.0-330.0","32","IP","v1.0","1052.300000011921","Was the final tone (up arrow) higher or (down arrow) lower in pitch?","38","response","","5","-","15"
"audio-keyboard-response","342","1130554","0.0-331.0","32","IP","v1.0","null","stimuli/sequence_A5-_500_15.wav","null","tones","","5","-","15"
"html-keyboard-response","343","1130935","0.0-332.0","32","IP","v1.0","379.90000000596046","Was the final tone (up arrow) higher or (down arrow) lower in pitch?","40","response","","5","-","15"
"audio-keyboard-response","344","1135616","0.0-333.0","32","IP","v1.0","null","stimuli/sequence_A5+_500_-15.wav","null","tones","","5","+","-15"
"html-keyboard-response","345","1136591","0.0-334.0","32","IP","v1.0","973.9000000059605","Was the final tone (up arrow) higher or (down arrow) lower in pitch?","38","response","","5","+","-15"
"audio-keyboard-response","346","1141270","0.0-335.0","32","IP","v1.0","null","stimuli/sequence_A5+_500_-15.wav","null","tones","","5","+","-15"
"html-keyboard-response","347","1141623","0.0-336.0","32","IP","v1.0","351.80000001192093","Was the final tone (up arrow) higher or (down arrow) lower in pitch?","38","response","","5","+","-15"
"audio-keyboard-response","348","1146454","0.0-337.0","32","IP","v1.0","null","stimuli/sequence_A5-_500_15.wav","null","tones","","5","-","15"
"html-keyboard-response","349","1147335","0.0-338.0","32","IP","v1.0","879.8000000119209","Was the final tone (up arrow) higher or (down arrow) lower in pitch?","38","response","","5","-","15"
"audio-keyboard-response","350","1152091","0.0-339.0","32","IP","v1.0","null","stimuli/sequence_A5-_500_0.wav","null","tones","","5","-","0"
"html-keyboard-response","351","1153175","0.0-340.0","32","IP","v1.0","1083.3999999910593","Was the final tone (up arrow) higher or (down arrow) lower in pitch?","38","response","","5","-","0"
"audio-keyboard-response","352","1157931","0.0-341.0","32","IP","v1.0","null","stimuli/sequence_A5-_500_0.wav","null","tones","","5","-","0"
"html-keyboard-response","353","1158351","0.0-342.0","32","IP","v1.0","419.29999999701977","Was the final tone (up arrow) higher or (down arrow) lower in pitch?","38","response","","5","-","0"
"audio-keyboard-response","354","1163028","0.0-343.0","32","IP","v1.0","null","stimuli/sequence_A5+_500_-15.wav","null","tones","","5","+","-15"
"html-keyboard-response","355","1164672","0.0-344.0","32","IP","v1.0","1642.7999999970198","Was the final tone (up arrow) higher or (down arrow) lower in pitch?","38","response","","5","+","-15"
"audio-keyboard-response","356","1169500","0.0-345.0","32","IP","v1.0","null","stimuli/sequence_A5+_500_15.wav","null","tones","","5","+","15"
"html-keyboard-response","357","1170167","0.0-346.0","32","IP","v1.0","666.0999999940395","Was the final tone (up arrow) higher or (down arrow) lower in pitch?","38","response","","5","+","15"
"audio-keyboard-response","358","1174847","0.0-347.0","32","IP","v1.0","null","stimuli/sequence_A5-_500_-15.wav","null","tones","","5","-","-15"
"html-keyboard-response","359","1176000","0.0-348.0","32","IP","v1.0","1151.7999999970198","Was the final tone (up arrow) higher or (down arrow) lower in pitch?","40","response","","5","-","-15"
"audio-keyboard-response","360","1180832","0.0-349.0","32","IP","v1.0","null","stimuli/sequence_A5-_500_15.wav","null","tones","","5","-","15"
"html-keyboard-response","361","1181704","0.0-350.0","32","IP","v1.0","870.7000000029802","Was the final tone (up arrow) higher or (down arrow) lower in pitch?","40","response","","5","-","15"
"audio-keyboard-response","362","1186532","0.0-351.0","32","IP","v1.0","null","stimuli/sequence_A5-_500_15.wav","null","tones","","5","-","15"
"html-keyboard-response","363","1188280","0.0-352.0","32","IP","v1.0","1746.3999999910593","Was the final tone (up arrow) higher or (down arrow) lower in pitch?","40","response","","5","-","15"
"audio-keyboard-response","364","1192959","0.0-353.0","32","IP","v1.0","null","stimuli/sequence_A5+_500_-15.wav","null","tones","","5","+","-15"
"html-keyboard-response","365","1194432","0.0-354.0","32","IP","v1.0","1472","Was the final tone (up arrow) higher or (down arrow) lower in pitch?","38","response","","5","+","-15"
"audio-keyboard-response","366","1199188","0.0-355.0","32","IP","v1.0","null","stimuli/sequence_A5-_500_0.wav","null","tones","","5","-","0"
"html-keyboard-response","367","1199760","0.0-356.0","32","IP","v1.0","571.5","Was the final tone (up arrow) higher or (down arrow) lower in pitch?","40","response","","5","-","0"
"audio-keyboard-response","368","1204435","0.0-357.0","32","IP","v1.0","null","stimuli/sequence_A5-_500_-15.wav","null","tones","","5","-","-15"
"html-keyboard-response","369","1205680","0.0-358.0","32","IP","v1.0","1243.7000000029802","Was the final tone (up arrow) higher or (down arrow) lower in pitch?","40","response","","5","-","-15"
"audio-keyboard-response","370","1210507","0.0-359.0","32","IP","v1.0","null","stimuli/sequence_A5-_500_15.wav","null","tones","","5","-","15"
"html-keyboard-response","371","1211712","0.0-360.0","32","IP","v1.0","1203.7999999970198","Was the final tone (up arrow) higher or (down arrow) lower in pitch?","40","response","","5","-","15"
"audio-keyboard-response","372","1216539","0.0-361.0","32","IP","v1.0","null","stimuli/sequence_A5+_500_15.wav","null","tones","","5","+","15"
"html-keyboard-response","373","1217048","0.0-362.0","32","IP","v1.0","508.29999999701977","Was the final tone (up arrow) higher or (down arrow) lower in pitch?","38","response","","5","+","15"
"audio-keyboard-response","374","1221798","0.0-363.0","32","IP","v1.0","null","stimuli/sequence_A5+_500_0.wav","null","tones","","5","+","0"
"html-keyboard-response","375","1222681","0.0-364.0","32","IP","v1.0","881.0999999940395","Was the final tone (up arrow) higher or (down arrow) lower in pitch?","38","response","","5","+","0"
"audio-keyboard-response","376","1227360","0.0-365.0","32","IP","v1.0","null","stimuli/sequence_A5-_500_-15.wav","null","tones","","5","-","-15"
"html-keyboard-response","377","1228321","0.0-366.0","32","IP","v1.0","959.7999999970198","Was the final tone (up arrow) higher or (down arrow) lower in pitch?","40","response","","5","-","-15"
"html-button-response","378","1233073","0.0-367.0","32","IP","v1.0","3251.199999988079","<h3>You have completed section 3 of 4!</h3><p>When you are ready to continue, press the button below to begin the next section.</p>","","break","0","","",""
"audio-keyboard-response","379","1238401","0.0-368.0","32","IP","v1.0","null","stimuli/sequence_A3+_500_15.wav","null","tones","","3","+","15"
"html-keyboard-response","380","1239057","0.0-369.0","32","IP","v1.0","654.6000000089407","Was the final tone (up arrow) higher or (down arrow) lower in pitch?","38","response","","3","+","15"
"audio-keyboard-response","381","1243811","0.0-370.0","32","IP","v1.0","null","stimuli/sequence_A3-_500_0.wav","null","tones","","3","-","0"
"html-keyboard-response","382","1244873","0.0-371.0","32","IP","v1.0","1060.5999999940395","Was the final tone (up arrow) higher or (down arrow) lower in pitch?","38","response","","3","-","0"
"audio-keyboard-response","383","1249703","0.0-372.0","32","IP","v1.0","null","stimuli/sequence_A3+_500_15.wav","null","tones","","3","+","15"
"html-keyboard-response","384","1250081","0.0-373.0","32","IP","v1.0","376.59999999403954","Was the final tone (up arrow) higher or (down arrow) lower in pitch?","40","response","","3","+","15"
"audio-keyboard-response","385","1254911","0.0-374.0","32","IP","v1.0","null","stimuli/sequence_A3+_500_15.wav","null","tones","","3","+","15"
"html-keyboard-response","386","1255385","0.0-375.0","32","IP","v1.0","473.29999999701977","Was the final tone (up arrow) higher or (down arrow) lower in pitch?","40","response","","3","+","15"
"audio-keyboard-response","387","1260217","0.0-376.0","32","IP","v1.0","null","stimuli/sequence_A3-_500_15.wav","null","tones","","3","-","15"
"html-keyboard-response","388","1260897","0.0-377.0","32","IP","v1.0","679.6999999880791","Was the final tone (up arrow) higher or (down arrow) lower in pitch?","40","response","","3","-","15"
"audio-keyboard-response","389","1265575","0.0-378.0","32","IP","v1.0","null","stimuli/sequence_A3+_500_-15.wav","null","tones","","3","+","-15"
"html-keyboard-response","390","1266833","0.0-379.0","32","IP","v1.0","1257.699999988079","Was the final tone (up arrow) higher or (down arrow) lower in pitch?","40","response","","3","+","-15"
"audio-keyboard-response","391","1271664","0.0-380.0","32","IP","v1.0","null","stimuli/sequence_A3+_500_15.wav","null","tones","","3","+","15"
"html-keyboard-response","392","1271945","0.0-381.0","32","IP","v1.0","280.1000000089407","Was the final tone (up arrow) higher or (down arrow) lower in pitch?","40","response","","3","+","15"
"audio-keyboard-response","393","1276622","0.0-382.0","32","IP","v1.0","null","stimuli/sequence_A3-_500_-15.wav","null","tones","","3","-","-15"
"html-keyboard-response","394","1277186","0.0-383.0","32","IP","v1.0","562.7999999970198","Was the final tone (up arrow) higher or (down arrow) lower in pitch?","40","response","","3","-","-15"
"audio-keyboard-response","395","1281864","0.0-384.0","32","IP","v1.0","null","stimuli/sequence_A3+_500_-15.wav","null","tones","","3","+","-15"
"html-keyboard-response","396","1282441","0.0-385.0","32","IP","v1.0","576.7999999970198","Was the final tone (up arrow) higher or (down arrow) lower in pitch?","38","response","","3","+","-15"
"audio-keyboard-response","397","1287117","0.0-386.0","32","IP","v1.0","null","stimuli/sequence_A3-_500_-15.wav","null","tones","","3","-","-15"
"html-keyboard-response","398","1287594","0.0-387.0","32","IP","v1.0","475.5","Was the final tone (up arrow) higher or (down arrow) lower in pitch?","40","response","","3","-","-15"
"audio-keyboard-response","399","1292348","0.0-388.0","32","IP","v1.0","null","stimuli/sequence_A3+_500_0.wav","null","tones","","3","+","0"
"html-keyboard-response","400","1292818","0.0-389.0","32","IP","v1.0","469","Was the final tone (up arrow) higher or (down arrow) lower in pitch?","40","response","","3","+","0"
"audio-keyboard-response","401","1297497","0.0-390.0","32","IP","v1.0","null","stimuli/sequence_A3+_500_-15.wav","null","tones","","3","+","-15"
"html-keyboard-response","402","1298258","0.0-391.0","32","IP","v1.0","760.0999999940395","Was the final tone (up arrow) higher or (down arrow) lower in pitch?","40","response","","3","+","-15"
"audio-keyboard-response","403","1303012","0.0-392.0","32","IP","v1.0","null","stimuli/sequence_A3+_500_0.wav","null","tones","","3","+","0"
"html-keyboard-response","404","1303362","0.0-393.0","32","IP","v1.0","349.20000000298023","Was the final tone (up arrow) higher or (down arrow) lower in pitch?","38","response","","3","+","0"
"audio-keyboard-response","405","1308039","0.0-394.0","32","IP","v1.0","null","stimuli/sequence_A3-_500_-15.wav","null","tones","","3","-","-15"
"html-keyboard-response","406","1308530","0.0-395.0","32","IP","v1.0","490.09999999403954","Was the final tone (up arrow) higher or (down arrow) lower in pitch?","40","response","","3","-","-15"
"audio-keyboard-response","407","1313287","0.0-396.0","32","IP","v1.0","null","stimuli/sequence_A3+_500_0.wav","null","tones","","3","+","0"
"html-keyboard-response","408","1313810","0.0-397.0","32","IP","v1.0","522.5","Was the final tone (up arrow) higher or (down arrow) lower in pitch?","38","response","","3","+","0"
"audio-keyboard-response","409","1318488","0.0-398.0","32","IP","v1.0","null","stimuli/sequence_A3+_500_-15.wav","null","tones","","3","+","-15"
"html-keyboard-response","410","1318650","0.0-399.0","32","IP","v1.0","161.20000000298023","Was the final tone (up arrow) higher or (down arrow) lower in pitch?","40","response","","3","+","-15"
"audio-keyboard-response","411","1323405","0.0-400.0","32","IP","v1.0","null","stimuli/sequence_A3-_500_0.wav","null","tones","","3","-","0"
"html-keyboard-response","412","1323634","0.0-401.0","32","IP","v1.0","228.30000001192093","Was the final tone (up arrow) higher or (down arrow) lower in pitch?","40","response","","3","-","0"
"audio-keyboard-response","413","1328310","0.0-402.0","32","IP","v1.0","null","stimuli/sequence_A3+_500_-15.wav","null","tones","","3","+","-15"
"html-keyboard-response","414","1328955","0.0-403.0","32","IP","v1.0","643.0999999940395","Was the final tone (up arrow) higher or (down arrow) lower in pitch?","38","response","","3","+","-15"
"audio-keyboard-response","415","1333628","0.0-404.0","32","IP","v1.0","null","stimuli/sequence_A3-_500_-15.wav","null","tones","","3","-","-15"
"html-keyboard-response","416","1333970","0.0-405.0","32","IP","v1.0","341.6000000089407","Was the final tone (up arrow) higher or (down arrow) lower in pitch?","40","response","","3","-","-15"
"audio-keyboard-response","417","1338800","0.0-406.0","32","IP","v1.0","null","stimuli/sequence_A3-_500_15.wav","null","tones","","3","-","15"
"html-keyboard-response","418","1339659","0.0-407.0","32","IP","v1.0","857.5","Was the final tone (up arrow) higher or (down arrow) lower in pitch?","40","response","","3","-","15"
"audio-keyboard-response","419","1344489","0.0-408.0","32","IP","v1.0","null","stimuli/sequence_A3+_500_15.wav","null","tones","","3","+","15"
"html-keyboard-response","420","1346331","0.0-409.0","32","IP","v1.0","1840.5999999940395","Was the final tone (up arrow) higher or (down arrow) lower in pitch?","38","response","","3","+","15"
"audio-keyboard-response","421","1351008","0.0-410.0","32","IP","v1.0","null","stimuli/sequence_A3-_500_-15.wav","null","tones","","3","-","-15"
"html-keyboard-response","422","1351651","0.0-411.0","32","IP","v1.0","641.5999999940395","Was the final tone (up arrow) higher or (down arrow) lower in pitch?","40","response","","3","-","-15"
"audio-keyboard-response","423","1356407","0.0-412.0","32","IP","v1.0","null","stimuli/sequence_A3+_500_0.wav","null","tones","","3","+","0"
"html-keyboard-response","424","1357027","0.0-413.0","32","IP","v1.0","618.9000000059605","Was the final tone (up arrow) higher or (down arrow) lower in pitch?","40","response","","3","+","0"
"audio-keyboard-response","425","1361858","0.0-414.0","32","IP","v1.0","null","stimuli/sequence_A3-_500_15.wav","null","tones","","3","-","15"
"html-keyboard-response","426","1362771","0.0-415.0","32","IP","v1.0","912.0999999940395","Was the final tone (up arrow) higher or (down arrow) lower in pitch?","40","response","","3","-","15"
"audio-keyboard-response","427","1367524","0.0-416.0","32","IP","v1.0","null","stimuli/sequence_A3-_500_0.wav","null","tones","","3","-","0"
"html-keyboard-response","428","1368395","0.0-417.0","32","IP","v1.0","870.2999999970198","Was the final tone (up arrow) higher or (down arrow) lower in pitch?","40","response","","3","-","0"
"audio-keyboard-response","429","1373224","0.0-418.0","32","IP","v1.0","null","stimuli/sequence_A3+_500_15.wav","null","tones","","3","+","15"
"html-keyboard-response","430","1374379","0.0-419.0","32","IP","v1.0","1154","Was the final tone (up arrow) higher or (down arrow) lower in pitch?","40","response","","3","+","15"
"audio-keyboard-response","431","1379134","0.0-420.0","32","IP","v1.0","null","stimuli/sequence_A3-_500_0.wav","null","tones","","3","-","0"
"html-keyboard-response","432","1379907","0.0-421.0","32","IP","v1.0","772.4000000059605","Was the final tone (up arrow) higher or (down arrow) lower in pitch?","40","response","","3","-","0"
"audio-keyboard-response","433","1384660","0.0-422.0","32","IP","v1.0","null","stimuli/sequence_A3-_500_0.wav","null","tones","","3","-","0"
"html-keyboard-response","434","1385980","0.0-423.0","32","IP","v1.0","1318.2999999970198","Was the final tone (up arrow) higher or (down arrow) lower in pitch?","40","response","","3","-","0"
"audio-keyboard-response","435","1390808","0.0-424.0","32","IP","v1.0","null","stimuli/sequence_A3-_500_15.wav","null","tones","","3","-","15"
"html-keyboard-response","436","1391179","0.0-425.0","32","IP","v1.0","370.59999999403954","Was the final tone (up arrow) higher or (down arrow) lower in pitch?","38","response","","3","-","15"
"audio-keyboard-response","437","1395934","0.0-426.0","32","IP","v1.0","null","stimuli/sequence_A3+_500_0.wav","null","tones","","3","+","0"
"html-keyboard-response","438","1396156","0.0-427.0","32","IP","v1.0","220.70000000298023","Was the final tone (up arrow) higher or (down arrow) lower in pitch?","38","response","","3","+","0"
"audio-keyboard-response","439","1400984","0.0-428.0","32","IP","v1.0","null","stimuli/sequence_A3-_500_15.wav","null","tones","","3","-","15"
"html-keyboard-response","440","1401292","0.0-429.0","32","IP","v1.0","306.40000000596046","Was the final tone (up arrow) higher or (down arrow) lower in pitch?","40","response","","3","-","15"
"audio-keyboard-response","441","1406122","0.0-430.0","32","IP","v1.0","null","stimuli/sequence_A3+_500_15.wav","null","tones","","3","+","15"
"html-keyboard-response","442","1407300","0.0-431.0","32","IP","v1.0","1177.0999999940395","Was the final tone (up arrow) higher or (down arrow) lower in pitch?","38","response","","3","+","15"
"audio-keyboard-response","443","1411973","0.0-432.0","32","IP","v1.0","null","stimuli/sequence_A3+_500_-15.wav","null","tones","","3","+","-15"
"html-keyboard-response","444","1412580","0.0-433.0","32","IP","v1.0","605.4000000059605","Was the final tone (up arrow) higher or (down arrow) lower in pitch?","40","response","","3","+","-15"
"audio-keyboard-response","445","1417256","0.0-434.0","32","IP","v1.0","null","stimuli/sequence_A3+_500_-15.wav","null","tones","","3","+","-15"
"html-keyboard-response","446","1418708","0.0-435.0","32","IP","v1.0","1451.0999999940395","Was the final tone (up arrow) higher or (down arrow) lower in pitch?","40","response","","3","+","-15"
"audio-keyboard-response","447","1423386","0.0-436.0","32","IP","v1.0","null","stimuli/sequence_A3-_500_-15.wav","null","tones","","3","-","-15"
"html-keyboard-response","448","1423980","0.0-437.0","32","IP","v1.0","592.9000000059605","Was the final tone (up arrow) higher or (down arrow) lower in pitch?","40","response","","3","-","-15"
"audio-keyboard-response","449","1428733","0.0-438.0","32","IP","v1.0","null","stimuli/sequence_A3-_500_0.wav","null","tones","","3","-","0"
"html-keyboard-response","450","1429692","0.0-439.0","32","IP","v1.0","958.6999999880791","Was the final tone (up arrow) higher or (down arrow) lower in pitch?","40","response","","3","-","0"
"audio-keyboard-response","451","1434445","0.0-440.0","32","IP","v1.0","null","stimuli/sequence_A3+_500_0.wav","null","tones","","3","+","0"
"html-keyboard-response","452","1435212","0.0-441.0","32","IP","v1.0","766.5","Was the final tone (up arrow) higher or (down arrow) lower in pitch?","38","response","","3","+","0"
"audio-keyboard-response","453","1439890","0.0-442.0","32","IP","v1.0","null","stimuli/sequence_A3+_500_-15.wav","null","tones","","3","+","-15"
"html-keyboard-response","454","1440908","0.0-443.0","32","IP","v1.0","1017.4000000059605","Was the final tone (up arrow) higher or (down arrow) lower in pitch?","40","response","","3","+","-15"
"audio-keyboard-response","455","1445660","0.0-444.0","32","IP","v1.0","null","stimuli/sequence_A3-_500_0.wav","null","tones","","3","-","0"
"html-keyboard-response","456","1446797","0.0-445.0","32","IP","v1.0","1135.199999988079","Was the final tone (up arrow) higher or (down arrow) lower in pitch?","40","response","","3","-","0"
"audio-keyboard-response","457","1451477","0.0-446.0","32","IP","v1.0","null","stimuli/sequence_A3-_500_-15.wav","null","tones","","3","-","-15"
"html-keyboard-response","458","1453357","0.0-447.0","32","IP","v1.0","1878.5999999940395","Was the final tone (up arrow) higher or (down arrow) lower in pitch?","40","response","","3","-","-15"
"audio-keyboard-response","459","1458188","0.0-448.0","32","IP","v1.0","null","stimuli/sequence_A3-_500_15.wav","null","tones","","3","-","15"
"html-keyboard-response","460","1459037","0.0-449.0","32","IP","v1.0","848","Was the final tone (up arrow) higher or (down arrow) lower in pitch?","38","response","","3","-","15"
"audio-keyboard-response","461","1463865","0.0-450.0","32","IP","v1.0","null","stimuli/sequence_A3-_500_15.wav","null","tones","","3","-","15"
"html-keyboard-response","462","1464765","0.0-451.0","32","IP","v1.0","898.9000000059605","Was the final tone (up arrow) higher or (down arrow) lower in pitch?","38","response","","3","-","15"
"audio-keyboard-response","463","1469595","0.0-452.0","32","IP","v1.0","null","stimuli/sequence_A3+_500_15.wav","null","tones","","3","+","15"
"html-keyboard-response","464","1471237","0.0-453.0","32","IP","v1.0","1641.1000000089407","Was the final tone (up arrow) higher or (down arrow) lower in pitch?","38","response","","3","+","15"
"audio-keyboard-response","465","1475992","0.0-454.0","32","IP","v1.0","null","stimuli/sequence_A3-_500_0.wav","null","tones","","3","-","0"
"html-keyboard-response","466","1476853","0.0-455.0","32","IP","v1.0","860.4000000059605","Was the final tone (up arrow) higher or (down arrow) lower in pitch?","40","response","","3","-","0"
"audio-keyboard-response","467","1481530","0.0-456.0","32","IP","v1.0","null","stimuli/sequence_A3-_500_-15.wav","null","tones","","3","-","-15"
"html-keyboard-response","468","1485189","0.0-457.0","32","IP","v1.0","3658.1000000089407","Was the final tone (up arrow) higher or (down arrow) lower in pitch?","40","response","","3","-","-15"
"audio-keyboard-response","469","1490017","0.0-458.0","32","IP","v1.0","null","stimuli/sequence_A3+_500_15.wav","null","tones","","3","+","15"
"html-keyboard-response","470","1490878","0.0-459.0","32","IP","v1.0","859.5","Was the final tone (up arrow) higher or (down arrow) lower in pitch?","40","response","","3","+","15"
"audio-keyboard-response","471","1495555","0.0-460.0","32","IP","v1.0","null","stimuli/sequence_A3+_500_-15.wav","null","tones","","3","+","-15"
"html-keyboard-response","472","1496853","0.0-461.0","32","IP","v1.0","1297.2000000029802","Was the final tone (up arrow) higher or (down arrow) lower in pitch?","40","response","","3","+","-15"
"audio-keyboard-response","473","1501685","0.0-462.0","32","IP","v1.0","null","stimuli/sequence_A3-_500_15.wav","null","tones","","3","-","15"
"html-keyboard-response","474","1502806","0.0-463.0","32","IP","v1.0","1119.2999999970198","Was the final tone (up arrow) higher or (down arrow) lower in pitch?","38","response","","3","-","15"
"audio-keyboard-response","475","1507484","0.0-464.0","32","IP","v1.0","null","stimuli/sequence_A3-_500_-15.wav","null","tones","","3","-","-15"
"html-keyboard-response","476","1508230","0.0-465.0","32","IP","v1.0","744.2000000029802","Was the final tone (up arrow) higher or (down arrow) lower in pitch?","38","response","","3","-","-15"
"audio-keyboard-response","477","1512982","0.0-466.0","32","IP","v1.0","null","stimuli/sequence_A3+_500_0.wav","null","tones","","3","+","0"
"html-keyboard-response","478","1513742","0.0-467.0","32","IP","v1.0","758.7999999970198","Was the final tone (up arrow) higher or (down arrow) lower in pitch?","40","response","","3","+","0"
"audio-keyboard-response","479","1518421","0.0-468.0","32","IP","v1.0","null","stimuli/sequence_A3+_500_-15.wav","null","tones","","3","+","-15"
"html-keyboard-response","480","1519134","0.0-469.0","32","IP","v1.0","711.4000000059605","Was the final tone (up arrow) higher or (down arrow) lower in pitch?","40","response","","3","+","-15"
"audio-keyboard-response","481","1523965","0.0-470.0","32","IP","v1.0","null","stimuli/sequence_A3-_500_15.wav","null","tones","","3","-","15"
"html-keyboard-response","482","1525398","0.0-471.0","32","IP","v1.0","1431.7999999970198","Was the final tone (up arrow) higher or (down arrow) lower in pitch?","40","response","","3","-","15"
"audio-keyboard-response","483","1530153","0.0-472.0","32","IP","v1.0","null","stimuli/sequence_A3-_500_0.wav","null","tones","","3","-","0"
"html-keyboard-response","484","1531238","0.0-473.0","32","IP","v1.0","1083.699999988079","Was the final tone (up arrow) higher or (down arrow) lower in pitch?","38","response","","3","-","0"
"audio-keyboard-response","485","1535993","0.0-474.0","32","IP","v1.0","null","stimuli/sequence_A3+_500_0.wav","null","tones","","3","+","0"
"html-keyboard-response","486","1536582","0.0-475.0","32","IP","v1.0","587.8999999910593","Was the final tone (up arrow) higher or (down arrow) lower in pitch?","40","response","","3","+","0"
"audio-keyboard-response","487","1541334","0.0-476.0","32","IP","v1.0","null","stimuli/sequence_A3-_500_0.wav","null","tones","","3","-","0"
"html-keyboard-response","488","1542270","0.0-477.0","32","IP","v1.0","934.8999999910593","Was the final tone (up arrow) higher or (down arrow) lower in pitch?","40","response","","3","-","0"
"audio-keyboard-response","489","1547023","0.0-478.0","32","IP","v1.0","null","stimuli/sequence_A3+_500_0.wav","null","tones","","3","+","0"
"html-keyboard-response","490","1547718","0.0-479.0","32","IP","v1.0","694.2999999970198","Was the final tone (up arrow) higher or (down arrow) lower in pitch?","40","response","","3","+","0"
"audio-keyboard-response","491","1552398","0.0-480.0","32","IP","v1.0","null","stimuli/sequence_A3-_500_-15.wav","null","tones","","3","-","-15"
"html-keyboard-response","492","1553142","0.0-481.0","32","IP","v1.0","742.9000000059605","Was the final tone (up arrow) higher or (down arrow) lower in pitch?","38","response","","3","-","-15"
"audio-keyboard-response","493","1557971","0.0-482.0","32","IP","v1.0","null","stimuli/sequence_A3+_500_15.wav","null","tones","","3","+","15"
"html-keyboard-response","494","1558615","0.0-483.0","32","IP","v1.0","642.1999999880791","Was the final tone (up arrow) higher or (down arrow) lower in pitch?","40","response","","3","+","15"
"audio-keyboard-response","495","1563446","0.0-484.0","32","IP","v1.0","null","stimuli/sequence_A3-_500_15.wav","null","tones","","3","-","15"
"html-keyboard-response","496","1564135","0.0-485.0","32","IP","v1.0","688","Was the final tone (up arrow) higher or (down arrow) lower in pitch?","40","response","","3","-","15"
"audio-keyboard-response","497","1568891","0.0-486.0","32","IP","v1.0","null","stimuli/sequence_A3+_500_0.wav","null","tones","","3","+","0"
"html-keyboard-response","498","1569999","0.0-487.0","32","IP","v1.0","1107","Was the final tone (up arrow) higher or (down arrow) lower in pitch?","38","response","","3","+","0"
"html-button-response","499","1607304","0.0-488.0","32","IP","v1.0","35799.29999999702","<h3>You have completed section 4 of 4!</h3><p>Thank you for participating! Please let the researcher know that you have finished.</p><p><em>Have a great day!</em></p>","","ending","0","","",""
