shift,interval,difficulty,event,.thisRepN,.thisTrialN,.thisN,.thisIndex,.label,.startVal,.nReversals,.stepSizes,.nUp,.nDown,.minVal,.maxVal,.stepType,.shift,.thisIndex,.thisRepN,.thisN,.direction,.stepSize,.intensity,.response,shift_size,response,rt,jnd,correct,subject,experimenter,experiment,version,
,,,,0,-1,-1,0,l+,25,8,"[8, 8, 4, 4, 2, 2, 1, 1]",1,2,0,100,lin,+,0,0,-1,start,8,25,False,,,,,,3,JKP,IPAD,1.0,
,,,,0,-1,-1,0,l-,25,8,"[8, 8, 4, 4, 2, 2, 1, 1]",1,2,0,100,lin,-,0,0,-1,start,8,25,True,,,,,,3,JKP,IPAD,1.0,
,,,,0,-1,-1,0,s-,1,8,"[8, 8, 4, 4, 2, 2, 1, 1]",1,2,0,100,lin,-,0,0,-1,start,8,1,False,,,,,,3,JKP,IPAD,1.0,
,,,,0,-1,-1,0,s+,1,8,"[8, 8, 4, 4, 2, 2, 1, 1]",1,2,0,100,lin,+,0,0,-1,start,8,1,True,,,,,,3,JKP,IPAD,1.0,
,,,,0,-1,-1,0,s+,1,8,"[8, 8, 4, 4, 2, 2, 1, 1]",1,2,0,100,lin,+,0,0,-1,down,8,0,False,,,,,,3,JKP,IPAD,1.0,
,,,,0,-1,-1,0,l-,25,8,"[8, 8, 4, 4, 2, 2, 1, 1]",1,2,0,100,lin,-,0,0,-1,down,8,17,True,,,,,,3,JKP,IPAD,1.0,
,,,,0,-1,-1,0,s-,1,8,"[8, 8, 4, 4, 2, 2, 1, 1]",1,2,0,100,lin,-,0,0,-1,up,8,9,False,,,,,,3,JKP,IPAD,1.0,
,,,,0,-1,-1,0,l+,25,8,"[8, 8, 4, 4, 2, 2, 1, 1]",1,2,0,100,lin,+,0,0,-1,up,8,33,True,,,,,,3,JKP,IPAD,1.0,
,,,,0,-1,-1,0,s+,1,8,"[8, 8, 4, 4, 2, 2, 1, 1]",1,2,0,100,lin,+,0,0,-1,up,8,8,False,,,,,,3,JKP,IPAD,1.0,
,,,,0,-1,-1,0,l-,25,8,"[8, 8, 4, 4, 2, 2, 1, 1]",1,2,0,100,lin,-,0,0,-1,down,8,9,False,,,,,,3,JKP,IPAD,1.0,
,,,,0,-1,-1,0,s-,1,8,"[8, 8, 4, 4, 2, 2, 1, 1]",1,2,0,100,lin,-,0,0,-1,up,8,17,True,,,,,,3,JKP,IPAD,1.0,
,,,,0,-1,-1,0,l+,25,8,"[8, 8, 4, 4, 2, 2, 1, 1]",1,2,0,100,lin,+,0,0,-1,down,8,25,True,,,,,,3,JKP,IPAD,1.0,
,,,,0,-1,-1,0,l-,25,8,"[8, 8, 4, 4, 2, 2, 1, 1]",1,2,0,100,lin,-,0,0,-1,up,8,17,True,,,,,,3,JKP,IPAD,1.0,
,,,,0,-1,-1,0,l+,25,8,"[8, 8, 4, 4, 2, 2, 1, 1]",1,2,0,100,lin,+,0,0,-1,down,8,25,True,,,,,,3,JKP,IPAD,1.0,
,,,,0,-1,-1,0,s+,1,8,"[8, 8, 4, 4, 2, 2, 1, 1]",1,2,0,100,lin,+,0,0,-1,up,8,16,True,,,,,,3,JKP,IPAD,1.0,
,,,,0,-1,-1,0,s-,1,8,"[8, 8, 4, 4, 2, 2, 1, 1]",1,2,0,100,lin,-,0,0,-1,down,8,9,True,,,,,,3,JKP,IPAD,1.0,
,,,,0,-1,-1,0,l+,25,8,"[8, 8, 4, 4, 2, 2, 1, 1]",1,2,0,100,lin,+,0,0,-1,down,8,17,False,,,,,,3,JKP,IPAD,1.0,
,,,,0,-1,-1,0,l-,25,8,"[8, 8, 4, 4, 2, 2, 1, 1]",1,2,0,100,lin,-,0,0,-1,up,8,17,True,,,,,,3,JKP,IPAD,1.0,
,,,,0,-1,-1,0,s+,1,8,"[8, 8, 4, 4, 2, 2, 1, 1]",1,2,0,100,lin,+,0,0,-1,up,8,16,True,,,,,,3,JKP,IPAD,1.0,
,,,,0,-1,-1,0,s-,1,8,"[8, 8, 4, 4, 2, 2, 1, 1]",1,2,0,100,lin,-,0,0,-1,down,8,9,True,,,,,,3,JKP,IPAD,1.0,
,,,,0,-1,-1,0,s+,1,8,"[8, 8, 4, 4, 2, 2, 1, 1]",1,2,0,100,lin,+,0,0,-1,down,4,12,True,,,,,,3,JKP,IPAD,1.0,
,,,,0,-1,-1,0,l-,25,8,"[8, 8, 4, 4, 2, 2, 1, 1]",1,2,0,100,lin,-,0,0,-1,down,4,13,True,,,,,,3,JKP,IPAD,1.0,
,,,,0,-1,-1,0,l+,25,8,"[8, 8, 4, 4, 2, 2, 1, 1]",1,2,0,100,lin,+,0,0,-1,up,4,21,True,,,,,,3,JKP,IPAD,1.0,
,,,,0,-1,-1,0,s-,1,8,"[8, 8, 4, 4, 2, 2, 1, 1]",1,2,0,100,lin,-,0,0,-1,down,8,1,True,,,,,,3,JKP,IPAD,1.0,
,,,,0,-1,-1,0,l-,25,8,"[8, 8, 4, 4, 2, 2, 1, 1]",1,2,0,100,lin,-,0,0,-1,down,4,13,False,,,,,,3,JKP,IPAD,1.0,
,,,,0,-1,-1,0,l+,25,8,"[8, 8, 4, 4, 2, 2, 1, 1]",1,2,0,100,lin,+,0,0,-1,up,4,21,True,,,,,,3,JKP,IPAD,1.0,
,,,,0,-1,-1,0,s+,1,8,"[8, 8, 4, 4, 2, 2, 1, 1]",1,2,0,100,lin,+,0,0,-1,down,4,12,False,,,,,,3,JKP,IPAD,1.0,
,,,,0,-1,-1,0,s-,1,8,"[8, 8, 4, 4, 2, 2, 1, 1]",1,2,0,100,lin,-,0,0,-1,down,8,1,True,,,,,,3,JKP,IPAD,1.0,
,,,,0,-1,-1,0,l+,25,8,"[8, 8, 4, 4, 2, 2, 1, 1]",1,2,0,100,lin,+,0,0,-1,down,4,17,True,,,,,,3,JKP,IPAD,1.0,
,,,,0,-1,-1,0,s+,1,8,"[8, 8, 4, 4, 2, 2, 1, 1]",1,2,0,100,lin,+,0,0,-1,up,4,16,True,,,,,,3,JKP,IPAD,1.0,
,,,,0,-1,-1,0,l-,25,8,"[8, 8, 4, 4, 2, 2, 1, 1]",1,2,0,100,lin,-,0,0,-1,up,4,17,True,,,,,,3,JKP,IPAD,1.0,
,,,,0,-1,-1,0,s-,1,8,"[8, 8, 4, 4, 2, 2, 1, 1]",1,2,0,100,lin,-,0,0,-1,down,8,0,False,,,,,,3,JKP,IPAD,1.0,
,,,,0,-1,-1,0,s-,1,8,"[8, 8, 4, 4, 2, 2, 1, 1]",1,2,0,100,lin,-,0,0,-1,up,4,4,True,,,,,,3,JKP,IPAD,1.0,
,,,,0,-1,-1,0,l-,25,8,"[8, 8, 4, 4, 2, 2, 1, 1]",1,2,0,100,lin,-,0,0,-1,up,4,17,True,,,,,,3,JKP,IPAD,1.0,
,,,,0,-1,-1,0,s+,1,8,"[8, 8, 4, 4, 2, 2, 1, 1]",1,2,0,100,lin,+,0,0,-1,up,4,16,True,,,,,,3,JKP,IPAD,1.0,
,,,,0,-1,-1,0,l+,25,8,"[8, 8, 4, 4, 2, 2, 1, 1]",1,2,0,100,lin,+,0,0,-1,down,4,17,False,,,,,,3,JKP,IPAD,1.0,
,,,,0,-1,-1,0,l-,25,8,"[8, 8, 4, 4, 2, 2, 1, 1]",1,2,0,100,lin,-,0,0,-1,down,2,15,True,,,,,,3,JKP,IPAD,1.0,
,,,,0,-1,-1,0,s-,1,8,"[8, 8, 4, 4, 2, 2, 1, 1]",1,2,0,100,lin,-,0,0,-1,up,4,4,True,,,,,,3,JKP,IPAD,1.0,
,,,,0,-1,-1,0,s+,1,8,"[8, 8, 4, 4, 2, 2, 1, 1]",1,2,0,100,lin,+,0,0,-1,down,2,14,True,,,,,,3,JKP,IPAD,1.0,
,,,,0,-1,-1,0,l+,25,8,"[8, 8, 4, 4, 2, 2, 1, 1]",1,2,0,100,lin,+,0,0,-1,up,2,19,True,,,,,,3,JKP,IPAD,1.0,
,,,,0,-1,-1,0,l+,25,8,"[8, 8, 4, 4, 2, 2, 1, 1]",1,2,0,100,lin,+,0,0,-1,up,2,19,True,,,,,,3,JKP,IPAD,1.0,
,,,,0,-1,-1,0,l-,25,8,"[8, 8, 4, 4, 2, 2, 1, 1]",1,2,0,100,lin,-,0,0,-1,down,2,15,True,,,,,,3,JKP,IPAD,1.0,
,,,,0,-1,-1,0,s+,1,8,"[8, 8, 4, 4, 2, 2, 1, 1]",1,2,0,100,lin,+,0,0,-1,down,2,14,True,,,,,,3,JKP,IPAD,1.0,
,,,,0,-1,-1,0,s-,1,8,"[8, 8, 4, 4, 2, 2, 1, 1]",1,2,0,100,lin,-,0,0,-1,down,4,0,False,,,,,,3,JKP,IPAD,1.0,
,,,,0,-1,-1,0,l-,25,8,"[8, 8, 4, 4, 2, 2, 1, 1]",1,2,0,100,lin,-,0,0,-1,down,2,13,True,,,,,,3,JKP,IPAD,1.0,
,,,,0,-1,-1,0,s+,1,8,"[8, 8, 4, 4, 2, 2, 1, 1]",1,2,0,100,lin,+,0,0,-1,down,2,12,False,,,,,,3,JKP,IPAD,1.0,
,,,,0,-1,-1,0,l+,25,8,"[8, 8, 4, 4, 2, 2, 1, 1]",1,2,0,100,lin,+,0,0,-1,down,2,17,True,,,,,,3,JKP,IPAD,1.0,
,,,,0,-1,-1,0,s-,1,8,"[8, 8, 4, 4, 2, 2, 1, 1]",1,2,0,100,lin,-,0,0,-1,up,2,2,True,,,,,,3,JKP,IPAD,1.0,
,,,,0,-1,-1,0,s-,1,8,"[8, 8, 4, 4, 2, 2, 1, 1]",1,2,0,100,lin,-,0,0,-1,up,2,2,True,,,,,,3,JKP,IPAD,1.0,
,,,,0,-1,-1,0,l-,25,8,"[8, 8, 4, 4, 2, 2, 1, 1]",1,2,0,100,lin,-,0,0,-1,down,2,13,True,,,,,,3,JKP,IPAD,1.0,
,,,,0,-1,-1,0,l+,25,8,"[8, 8, 4, 4, 2, 2, 1, 1]",1,2,0,100,lin,+,0,0,-1,down,2,17,True,,,,,,3,JKP,IPAD,1.0,
,,,,0,-1,-1,0,s+,1,8,"[8, 8, 4, 4, 2, 2, 1, 1]",1,2,0,100,lin,+,0,0,-1,up,2,14,True,,,,,,3,JKP,IPAD,1.0,
,,,,0,-1,-1,0,s-,1,8,"[8, 8, 4, 4, 2, 2, 1, 1]",1,2,0,100,lin,-,0,0,-1,down,2,0,False,,,,,,3,JKP,IPAD,1.0,
,,,,0,-1,-1,0,l-,25,8,"[8, 8, 4, 4, 2, 2, 1, 1]",1,2,0,100,lin,-,0,0,-1,down,2,11,True,,,,,,3,JKP,IPAD,1.0,
,,,,0,-1,-1,0,l+,25,8,"[8, 8, 4, 4, 2, 2, 1, 1]",1,2,0,100,lin,+,0,0,-1,down,2,15,True,,,,,,3,JKP,IPAD,1.0,
,,,,0,-1,-1,0,s+,1,8,"[8, 8, 4, 4, 2, 2, 1, 1]",1,2,0,100,lin,+,0,0,-1,up,2,14,True,,,,,,3,JKP,IPAD,1.0,
,,,,0,-1,-1,0,l-,25,8,"[8, 8, 4, 4, 2, 2, 1, 1]",1,2,0,100,lin,-,0,0,-1,down,2,11,True,,,,,,3,JKP,IPAD,1.0,
,,,,0,-1,-1,0,s+,1,8,"[8, 8, 4, 4, 2, 2, 1, 1]",1,2,0,100,lin,+,0,0,-1,down,1,13,True,,,,,,3,JKP,IPAD,1.0,
,,,,0,-1,-1,0,l+,25,8,"[8, 8, 4, 4, 2, 2, 1, 1]",1,2,0,100,lin,+,0,0,-1,down,2,15,True,,,,,,3,JKP,IPAD,1.0,
,,,,0,-1,-1,0,s-,1,8,"[8, 8, 4, 4, 2, 2, 1, 1]",1,2,0,100,lin,-,0,0,-1,up,1,1,True,,,,,,3,JKP,IPAD,1.0,
,,,,0,-1,-1,0,s+,1,8,"[8, 8, 4, 4, 2, 2, 1, 1]",1,2,0,100,lin,+,0,0,-1,down,1,13,True,,,,,,3,JKP,IPAD,1.0,
,,,,0,-1,-1,0,l+,25,8,"[8, 8, 4, 4, 2, 2, 1, 1]",1,2,0,100,lin,+,0,0,-1,down,2,13,True,,,,,,3,JKP,IPAD,1.0,
,,,,0,-1,-1,0,s-,1,8,"[8, 8, 4, 4, 2, 2, 1, 1]",1,2,0,100,lin,-,0,0,-1,up,1,1,True,,,,,,3,JKP,IPAD,1.0,
,,,,0,-1,-1,0,l-,25,8,"[8, 8, 4, 4, 2, 2, 1, 1]",1,2,0,100,lin,-,0,0,-1,down,2,9,True,,,,,,3,JKP,IPAD,1.0,
,,,,0,-1,-1,0,l-,25,8,"[8, 8, 4, 4, 2, 2, 1, 1]",1,2,0,100,lin,-,0,0,-1,down,2,9,True,,,,,,3,JKP,IPAD,1.0,
,,,,0,-1,-1,0,s+,1,8,"[8, 8, 4, 4, 2, 2, 1, 1]",1,2,0,100,lin,+,0,0,-1,down,1,12,True,,,,,,3,JKP,IPAD,1.0,
,,,,0,-1,-1,0,s-,1,8,"[8, 8, 4, 4, 2, 2, 1, 1]",1,2,0,100,lin,-,0,0,-1,down,1,0,False,,,,,,3,JKP,IPAD,1.0,
,,,,0,-1,-1,0,l+,25,8,"[8, 8, 4, 4, 2, 2, 1, 1]",1,2,0,100,lin,+,0,0,-1,down,2,13,False,,,,,,3,JKP,IPAD,1.0,
,,,,0,-1,-1,0,l+,25,8,"[8, 8, 4, 4, 2, 2, 1, 1]",1,2,0,100,lin,+,0,0,-1,up,1,14,True,,,,,,3,JKP,IPAD,1.0,
,,,,0,-1,-1,0,s+,1,8,"[8, 8, 4, 4, 2, 2, 1, 1]",1,2,0,100,lin,+,0,0,-1,down,1,12,True,,,,,,3,JKP,IPAD,1.0,
,,,,0,-1,-1,0,l-,25,8,"[8, 8, 4, 4, 2, 2, 1, 1]",1,2,0,100,lin,-,0,0,-1,down,2,7,True,,,,,,3,JKP,IPAD,1.0,
,,,,0,-1,-1,0,l-,25,8,"[8, 8, 4, 4, 2, 2, 1, 1]",1,2,0,100,lin,-,0,0,-1,down,2,7,True,,,,,,3,JKP,IPAD,1.0,
,,,,0,-1,-1,0,s+,1,8,"[8, 8, 4, 4, 2, 2, 1, 1]",1,2,0,100,lin,+,0,0,-1,down,1,11,True,,,,,,3,JKP,IPAD,1.0,
,,,,0,-1,-1,0,l+,25,8,"[8, 8, 4, 4, 2, 2, 1, 1]",1,2,0,100,lin,+,0,0,-1,up,1,14,True,,,,,,3,JKP,IPAD,1.0,
,,,,0,-1,-1,0,l-,25,8,"[8, 8, 4, 4, 2, 2, 1, 1]",1,2,0,100,lin,-,0,0,-1,down,2,5,True,,,,,,3,JKP,IPAD,1.0,
,,,,0,-1,-1,0,l+,25,8,"[8, 8, 4, 4, 2, 2, 1, 1]",1,2,0,100,lin,+,0,0,-1,down,1,13,True,,,,,,3,JKP,IPAD,1.0,
,,,,0,-1,-1,0,s+,1,8,"[8, 8, 4, 4, 2, 2, 1, 1]",1,2,0,100,lin,+,0,0,-1,down,1,11,True,,,,,,3,JKP,IPAD,1.0,
,,,,0,-1,-1,0,l-,25,8,"[8, 8, 4, 4, 2, 2, 1, 1]",1,2,0,100,lin,-,0,0,-1,down,2,5,True,,,,,,3,JKP,IPAD,1.0,
,,,,0,-1,-1,0,s+,1,8,"[8, 8, 4, 4, 2, 2, 1, 1]",1,2,0,100,lin,+,0,0,-1,down,1,10,True,,,,,,3,JKP,IPAD,1.0,
,,,,0,-1,-1,0,l+,25,8,"[8, 8, 4, 4, 2, 2, 1, 1]",1,2,0,100,lin,+,0,0,-1,down,1,13,True,,,,,,3,JKP,IPAD,1.0,
,,,,0,-1,-1,0,s+,1,8,"[8, 8, 4, 4, 2, 2, 1, 1]",1,2,0,100,lin,+,0,0,-1,down,1,10,True,,,,,,3,JKP,IPAD,1.0,
,,,,0,-1,-1,0,l+,25,8,"[8, 8, 4, 4, 2, 2, 1, 1]",1,2,0,100,lin,+,0,0,-1,down,1,12,True,,,,,,3,JKP,IPAD,1.0,
,,,,0,-1,-1,0,l-,25,8,"[8, 8, 4, 4, 2, 2, 1, 1]",1,2,0,100,lin,-,0,0,-1,down,2,3,False,,,,,,3,JKP,IPAD,1.0,
,,,,0,-1,-1,0,l+,25,8,"[8, 8, 4, 4, 2, 2, 1, 1]",1,2,0,100,lin,+,0,0,-1,down,1,12,True,,,,,,3,JKP,IPAD,1.0,
,,,,0,-1,-1,0,l-,25,8,"[8, 8, 4, 4, 2, 2, 1, 1]",1,2,0,100,lin,-,0,0,-1,up,2,5,True,,,,,,3,JKP,IPAD,1.0,
,,,,0,-1,-1,0,s+,1,8,"[8, 8, 4, 4, 2, 2, 1, 1]",1,2,0,100,lin,+,0,0,-1,down,1,9,False,,,,,,3,JKP,IPAD,1.0,
,,,,0,-1,-1,0,l-,25,8,"[8, 8, 4, 4, 2, 2, 1, 1]",1,2,0,100,lin,-,0,0,-1,up,2,5,True,,,,,,3,JKP,IPAD,1.0,
,,,,0,-1,-1,0,l+,25,8,"[8, 8, 4, 4, 2, 2, 1, 1]",1,2,0,100,lin,+,0,0,-1,down,1,11,True,,,,,,3,JKP,IPAD,1.0,
,,,,0,-1,-1,0,s+,1,8,"[8, 8, 4, 4, 2, 2, 1, 1]",1,2,0,100,lin,+,0,0,-1,up,1,10,True,,,,,,3,JKP,IPAD,1.0,
,,,,0,-1,-1,0,l-,25,8,"[8, 8, 4, 4, 2, 2, 1, 1]",1,2,0,100,lin,-,0,0,-1,down,1,4,True,,,,,,3,JKP,IPAD,1.0,
,,,,0,-1,-1,0,l+,25,8,"[8, 8, 4, 4, 2, 2, 1, 1]",1,2,0,100,lin,+,0,0,-1,down,1,11,True,,,,,,3,JKP,IPAD,1.0,
,,,,0,-1,-1,0,s+,1,8,"[8, 8, 4, 4, 2, 2, 1, 1]",1,2,0,100,lin,+,0,0,-1,up,1,10,False,,,,,,3,JKP,IPAD,1.0,
,,,,0,-1,-1,0,l-,25,8,"[8, 8, 4, 4, 2, 2, 1, 1]",1,2,0,100,lin,-,0,0,-1,down,1,4,True,,,,,,3,JKP,IPAD,1.0,
,,,,0,-1,-1,0,l+,25,8,"[8, 8, 4, 4, 2, 2, 1, 1]",1,2,0,100,lin,+,0,0,-1,down,1,10,False,,,,,,3,JKP,IPAD,1.0,
,,,,0,-1,-1,0,s+,1,8,"[8, 8, 4, 4, 2, 2, 1, 1]",1,2,0,100,lin,+,0,0,-1,up,1,11,True,,,,,,3,JKP,IPAD,1.0,
,,,,0,-1,-1,0,l-,25,8,"[8, 8, 4, 4, 2, 2, 1, 1]",1,2,0,100,lin,-,0,0,-1,down,1,3,True,,,,,,3,JKP,IPAD,1.0,
,,,,0,-1,-1,0,s+,1,8,"[8, 8, 4, 4, 2, 2, 1, 1]",1,2,0,100,lin,+,0,0,-1,up,1,11,True,,,,,,3,JKP,IPAD,1.0,
,,,,0,-1,-1,0,l-,25,8,"[8, 8, 4, 4, 2, 2, 1, 1]",1,2,0,100,lin,-,0,0,-1,down,1,3,True,,,,,,3,JKP,IPAD,1.0,
,,,,0,-1,-1,0,l-,25,8,"[8, 8, 4, 4, 2, 2, 1, 1]",1,2,0,100,lin,-,0,0,-1,down,1,2,True,,,,,,3,JKP,IPAD,1.0,
,,,,0,-1,-1,0,l-,25,8,"[8, 8, 4, 4, 2, 2, 1, 1]",1,2,0,100,lin,-,0,0,-1,down,1,2,True,,,,,,3,JKP,IPAD,1.0,
,,,,0,-1,-1,0,l-,25,8,"[8, 8, 4, 4, 2, 2, 1, 1]",1,2,0,100,lin,-,0,0,-1,down,1,1,True,,,,,,3,JKP,IPAD,1.0,
,,,,0,-1,-1,0,l-,25,8,"[8, 8, 4, 4, 2, 2, 1, 1]",1,2,0,100,lin,-,0,0,-1,down,1,1,True,,,,,,3,JKP,IPAD,1.0,
,,,,0,-1,-1,0,l-,25,8,"[8, 8, 4, 4, 2, 2, 1, 1]",1,2,0,100,lin,-,0,0,-1,down,1,0,False,,,,,,3,JKP,IPAD,1.0,
,,,,0,-1,-1,0,l-,25,8,"[8, 8, 4, 4, 2, 2, 1, 1]",1,2,0,100,lin,-,0,0,-1,up,1,1,True,,,,,,3,JKP,IPAD,1.0,
,,,,0,-1,-1,0,l-,25,8,"[8, 8, 4, 4, 2, 2, 1, 1]",1,2,0,100,lin,-,0,0,-1,up,1,1,True,,,,,,3,JKP,IPAD,1.0,
+,500,4,practice,0,0,0,0,,,,,,,,,,,0,0,0,,,,,28.5,+,1,7.125,1,3,JKP,IPAD,1.0,
-,500,4,practice,0,1,1,1,,,,,,,,,,,1,0,1,,,,,28.5,-,1,7.125,1,3,JKP,IPAD,1.0,
+,500,4,practice,0,2,2,2,,,,,,,,,,,2,0,2,,,,,28.5,+,0,7.125,1,3,JKP,IPAD,1.0,
-,500,4,practice,0,3,3,3,,,,,,,,,,,3,0,3,,,,,28.5,-,1,7.125,1,3,JKP,IPAD,1.0,
-,500,1,trial,0,4,4,4,,,,,,,,,,,4,0,4,,,,,7.125,-,1,7.125,1,3,JKP,IPAD,1.0,
+,425,1.5,trial,0,5,5,5,,,,,,,,,,,5,0,5,,,,,10.6875,+,1,7.125,1,3,JKP,IPAD,1.0,
-,425,1,trial,0,6,6,6,,,,,,,,,,,6,0,6,,,,,7.125,-,0,7.125,1,3,JKP,IPAD,1.0,
-,575,1,trial,0,7,7,7,,,,,,,,,,,7,0,7,,,,,7.125,-,1,7.125,1,3,JKP,IPAD,1.0,
+,575,1,trial,0,8,8,8,,,,,,,,,,,8,0,8,,,,,7.125,+,1,7.125,1,3,JKP,IPAD,1.0,
-,500,1,trial,0,9,9,9,,,,,,,,,,,9,0,9,,,,,7.125,-,1,7.125,1,3,JKP,IPAD,1.0,
-,575,1.5,trial,0,10,10,10,,,,,,,,,,,10,0,10,,,,,10.6875,-,1,7.125,1,3,JKP,IPAD,1.0,
-,425,1.5,trial,0,11,11,11,,,,,,,,,,,11,0,11,,,,,10.6875,-,2,7.125,1,3,JKP,IPAD,1.0,
+,425,1,trial,0,12,12,12,,,,,,,,,,,12,0,12,,,,,7.125,+,1,7.125,1,3,JKP,IPAD,1.0,
-,425,1,trial,0,13,13,13,,,,,,,,,,,13,0,13,,,,,7.125,+,1,7.125,0,3,JKP,IPAD,1.0,
-,500,1,trial,0,14,14,14,,,,,,,,,,,14,0,14,,,,,7.125,-,0,7.125,1,3,JKP,IPAD,1.0,
+,575,1,trial,0,15,15,15,,,,,,,,,,,15,0,15,,,,,7.125,+,1,7.125,1,3,JKP,IPAD,1.0,
+,575,1.5,trial,0,16,16,16,,,,,,,,,,,16,0,16,,,,,10.6875,+,1,7.125,1,3,JKP,IPAD,1.0,
-,575,1,trial,0,17,17,17,,,,,,,,,,,17,0,17,,,,,7.125,-,1,7.125,1,3,JKP,IPAD,1.0,
+,425,1.5,trial,0,18,18,18,,,,,,,,,,,18,0,18,,,,,10.6875,+,1,7.125,1,3,JKP,IPAD,1.0,
+,500,1.5,trial,0,19,19,19,,,,,,,,,,,19,0,19,,,,,10.6875,-,0,7.125,0,3,JKP,IPAD,1.0,
+,575,1,trial,0,20,20,20,,,,,,,,,,,20,0,20,,,,,7.125,+,1,7.125,1,3,JKP,IPAD,1.0,
-,425,1,trial,0,21,21,21,,,,,,,,,,,21,0,21,,,,,7.125,-,0,7.125,1,3,JKP,IPAD,1.0,
-,575,1.5,trial,0,22,22,22,,,,,,,,,,,22,0,22,,,,,10.6875,-,1,7.125,1,3,JKP,IPAD,1.0,
-,500,1,trial,0,23,23,23,,,,,,,,,,,23,0,23,,,,,7.125,-,0,7.125,1,3,JKP,IPAD,1.0,
-,425,1.5,trial,0,24,24,24,,,,,,,,,,,24,0,24,,,,,10.6875,-,1,7.125,1,3,JKP,IPAD,1.0,
+,500,1.5,trial,0,25,25,25,,,,,,,,,,,25,0,25,,,,,10.6875,+,1,7.125,1,3,JKP,IPAD,1.0,
-,575,1,trial,0,26,26,26,,,,,,,,,,,26,0,26,,,,,7.125,-,1,7.125,1,3,JKP,IPAD,1.0,
-,425,1,trial,0,27,27,27,,,,,,,,,,,27,0,27,,,,,7.125,-,1,7.125,1,3,JKP,IPAD,1.0,
+,500,1,trial,0,28,28,28,,,,,,,,,,,28,0,28,,,,,7.125,+,1,7.125,1,3,JKP,IPAD,1.0,
+,575,1.5,trial,0,29,29,29,,,,,,,,,,,29,0,29,,,,,10.6875,-,2,7.125,0,3,JKP,IPAD,1.0,
-,500,1.5,trial,0,30,30,30,,,,,,,,,,,30,0,30,,,,,10.6875,-,1,7.125,1,3,JKP,IPAD,1.0,
+,500,1,trial,0,31,31,31,,,,,,,,,,,31,0,31,,,,,7.125,+,0,7.125,1,3,JKP,IPAD,1.0,
-,575,1,trial,0,32,32,32,,,,,,,,,,,32,0,32,,,,,7.125,-,1,7.125,1,3,JKP,IPAD,1.0,
-,500,1.5,trial,0,33,33,33,,,,,,,,,,,33,0,33,,,,,10.6875,-,1,7.125,1,3,JKP,IPAD,1.0,
+,500,1,trial,0,34,34,34,,,,,,,,,,,34,0,34,,,,,7.125,+,0,7.125,1,3,JKP,IPAD,1.0,
+,425,1.5,trial,0,35,35,35,,,,,,,,,,,35,0,35,,,,,10.6875,+,2,7.125,1,3,JKP,IPAD,1.0,
+,575,1,trial,0,36,36,36,,,,,,,,,,,36,0,36,,,,,7.125,+,2,7.125,1,3,JKP,IPAD,1.0,
+,575,1.5,trial,0,37,37,37,,,,,,,,,,,37,0,37,,,,,10.6875,-,1,7.125,0,3,JKP,IPAD,1.0,
+,500,1,trial,0,38,38,38,,,,,,,,,,,38,0,38,,,,,7.125,-,2,7.125,0,3,JKP,IPAD,1.0,
-,425,1.5,trial,0,39,39,39,,,,,,,,,,,39,0,39,,,,,10.6875,-,2,7.125,1,3,JKP,IPAD,1.0,
+,500,1.5,trial,0,40,40,40,,,,,,,,,,,40,0,40,,,,,10.6875,+,1,7.125,1,3,JKP,IPAD,1.0,
-,425,1.5,trial,0,41,41,41,,,,,,,,,,,41,0,41,,,,,10.6875,-,1,7.125,1,3,JKP,IPAD,1.0,
-,575,1.5,trial,0,42,42,42,,,,,,,,,,,42,0,42,,,,,10.6875,-,1,7.125,1,3,JKP,IPAD,1.0,
+,425,1,trial,0,43,43,43,,,,,,,,,,,43,0,43,,,,,7.125,+,1,7.125,1,3,JKP,IPAD,1.0,
+,425,1,trial,0,44,44,44,,,,,,,,,,,44,0,44,,,,,7.125,+,1,7.125,1,3,JKP,IPAD,1.0,
+,500,1.5,trial,0,45,45,45,,,,,,,,,,,45,0,45,,,,,10.6875,-,2,7.125,0,3,JKP,IPAD,1.0,
+,425,1.5,trial,0,46,46,46,,,,,,,,,,,46,0,46,,,,,10.6875,+,1,7.125,1,3,JKP,IPAD,1.0,
+,575,1.5,trial,0,47,47,47,,,,,,,,,,,47,0,47,,,,,10.6875,-,1,7.125,0,3,JKP,IPAD,1.0,
+,575,1.5,trial,0,48,48,48,,,,,,,,,,,48,0,48,,,,,10.6875,-,0,7.125,0,3,JKP,IPAD,1.0,
-,500,1.5,trial,0,49,49,49,,,,,,,,,,,49,0,49,,,,,10.6875,+,1,7.125,0,3,JKP,IPAD,1.0,
-,575,1.5,trial,0,50,50,50,,,,,,,,,,,50,0,50,,,,,10.6875,-,1,7.125,1,3,JKP,IPAD,1.0,
+,425,1.5,trial,0,51,51,51,,,,,,,,,,,51,0,51,,,,,10.6875,+,1,7.125,1,3,JKP,IPAD,1.0,
-,425,1,trial,0,52,52,52,,,,,,,,,,,52,0,52,,,,,7.125,-,1,7.125,1,3,JKP,IPAD,1.0,
+,425,1,trial,0,53,53,53,,,,,,,,,,,53,0,53,,,,,7.125,+,1,7.125,1,3,JKP,IPAD,1.0,
-,575,1,trial,0,54,54,54,,,,,,,,,,,54,0,54,,,,,7.125,-,0,7.125,1,3,JKP,IPAD,1.0,
-,425,1.5,trial,0,55,55,55,,,,,,,,,,,55,0,55,,,,,10.6875,-,1,7.125,1,3,JKP,IPAD,1.0,
+,500,1,trial,0,56,56,56,,,,,,,,,,,56,0,56,,,,,7.125,+,0,7.125,1,3,JKP,IPAD,1.0,
-,500,1.5,trial,0,57,57,57,,,,,,,,,,,57,0,57,,,,,10.6875,-,1,7.125,1,3,JKP,IPAD,1.0,
+,425,1,trial,0,58,58,58,,,,,,,,,,,58,0,58,,,,,7.125,-,2,7.125,0,3,JKP,IPAD,1.0,
+,575,1,trial,0,59,59,59,,,,,,,,,,,59,0,59,,,,,7.125,-,1,7.125,0,3,JKP,IPAD,1.0,
-,500,1,trial,0,60,60,60,,,,,,,,,,,60,0,60,,,,,7.125,-,1,7.125,1,3,JKP,IPAD,1.0,
+,500,1.5,trial,0,61,61,61,,,,,,,,,,,61,0,61,,,,,10.6875,+,1,7.125,1,3,JKP,IPAD,1.0,
-,500,1.5,trial,0,62,62,62,,,,,,,,,,,62,0,62,,,,,10.6875,-,1,7.125,1,3,JKP,IPAD,1.0,
-,575,1.5,trial,0,63,63,63,,,,,,,,,,,63,0,63,,,,,10.6875,-,1,7.125,1,3,JKP,IPAD,1.0,
-,575,1,trial,0,64,64,64,,,,,,,,,,,64,0,64,,,,,7.125,-,0,7.125,1,3,JKP,IPAD,1.0,
-,575,1,trial,0,65,65,65,,,,,,,,,,,65,0,65,,,,,7.125,-,1,7.125,1,3,JKP,IPAD,1.0,
+,575,1.5,trial,0,66,66,66,,,,,,,,,,,66,0,66,,,,,10.6875,+,2,7.125,1,3,JKP,IPAD,1.0,
+,575,1,trial,0,67,67,67,,,,,,,,,,,67,0,67,,,,,7.125,+,1,7.125,1,3,JKP,IPAD,1.0,
-,425,1.5,trial,0,68,68,68,,,,,,,,,,,68,0,68,,,,,10.6875,-,2,7.125,1,3,JKP,IPAD,1.0,
-,575,1,trial,0,69,69,69,,,,,,,,,,,69,0,69,,,,,7.125,-,1,7.125,1,3,JKP,IPAD,1.0,
+,500,1,trial,0,70,70,70,,,,,,,,,,,70,0,70,,,,,7.125,+,1,7.125,1,3,JKP,IPAD,1.0,
-,575,1.5,trial,0,71,71,71,,,,,,,,,,,71,0,71,,,,,10.6875,-,1,7.125,1,3,JKP,IPAD,1.0,
+,425,1.5,trial,0,72,72,72,,,,,,,,,,,72,0,72,,,,,10.6875,+,1,7.125,1,3,JKP,IPAD,1.0,
-,500,1,trial,0,73,73,73,,,,,,,,,,,73,0,73,,,,,7.125,+,2,7.125,0,3,JKP,IPAD,1.0,
-,425,1.5,trial,0,74,74,74,,,,,,,,,,,74,0,74,,,,,10.6875,-,1,7.125,1,3,JKP,IPAD,1.0,
-,425,1,trial,0,75,75,75,,,,,,,,,,,75,0,75,,,,,7.125,-,1,7.125,1,3,JKP,IPAD,1.0,
+,500,1,trial,0,76,76,76,,,,,,,,,,,76,0,76,,,,,7.125,+,1,7.125,1,3,JKP,IPAD,1.0,
+,500,1,trial,0,77,77,77,,,,,,,,,,,77,0,77,,,,,7.125,+,1,7.125,1,3,JKP,IPAD,1.0,
+,425,1.5,trial,0,78,78,78,,,,,,,,,,,78,0,78,,,,,10.6875,-,2,7.125,0,3,JKP,IPAD,1.0,
-,500,1,trial,0,79,79,79,,,,,,,,,,,79,0,79,,,,,7.125,-,1,7.125,1,3,JKP,IPAD,1.0,
+,575,1.5,trial,0,80,80,80,,,,,,,,,,,80,0,80,,,,,10.6875,+,1,7.125,1,3,JKP,IPAD,1.0,
-,425,1,trial,0,81,81,81,,,,,,,,,,,81,0,81,,,,,7.125,-,1,7.125,1,3,JKP,IPAD,1.0,
-,500,1.5,trial,0,82,82,82,,,,,,,,,,,82,0,82,,,,,10.6875,-,1,7.125,1,3,JKP,IPAD,1.0,
+,425,1.5,trial,0,83,83,83,,,,,,,,,,,83,0,83,,,,,10.6875,+,1,7.125,1,3,JKP,IPAD,1.0,
+,575,1,trial,0,84,84,84,,,,,,,,,,,84,0,84,,,,,7.125,-,1,7.125,0,3,JKP,IPAD,1.0,
-,500,1.5,trial,0,85,85,85,,,,,,,,,,,85,0,85,,,,,10.6875,-,0,7.125,1,3,JKP,IPAD,1.0,
+,425,1,trial,0,86,86,86,,,,,,,,,,,86,0,86,,,,,7.125,+,0,7.125,1,3,JKP,IPAD,1.0,
+,425,1,trial,0,87,87,87,,,,,,,,,,,87,0,87,,,,,7.125,-,1,7.125,0,3,JKP,IPAD,1.0,
+,425,1,trial,0,88,88,88,,,,,,,,,,,88,0,88,,,,,7.125,+,0,7.125,1,3,JKP,IPAD,1.0,
+,425,1.5,trial,0,89,89,89,,,,,,,,,,,89,0,89,,,,,10.6875,-,1,7.125,0,3,JKP,IPAD,1.0,
-,425,1.5,trial,0,90,90,90,,,,,,,,,,,90,0,90,,,,,10.6875,-,0,7.125,1,3,JKP,IPAD,1.0,
-,575,1.5,trial,0,91,91,91,,,,,,,,,,,91,0,91,,,,,10.6875,-,1,7.125,1,3,JKP,IPAD,1.0,
+,500,1.5,trial,0,92,92,92,,,,,,,,,,,92,0,92,,,,,10.6875,+,1,7.125,1,3,JKP,IPAD,1.0,
-,500,1,trial,0,93,93,93,,,,,,,,,,,93,0,93,,,,,7.125,-,0,7.125,1,3,JKP,IPAD,1.0,
+,500,1.5,trial,0,94,94,94,,,,,,,,,,,94,0,94,,,,,10.6875,+,1,7.125,1,3,JKP,IPAD,1.0,
-,575,1,trial,0,95,95,95,,,,,,,,,,,95,0,95,,,,,7.125,-,0,7.125,1,3,JKP,IPAD,1.0,
+,575,1,trial,0,96,96,96,,,,,,,,,,,96,0,96,,,,,7.125,+,1,7.125,1,3,JKP,IPAD,1.0,
+,575,1,trial,0,97,97,97,,,,,,,,,,,97,0,97,,,,,7.125,+,2,7.125,1,3,JKP,IPAD,1.0,
+,500,1,trial,0,98,98,98,,,,,,,,,,,98,0,98,,,,,7.125,-,2,7.125,0,3,JKP,IPAD,1.0,
+,575,1,trial,0,99,99,99,,,,,,,,,,,99,0,99,,,,,7.125,+,1,7.125,1,3,JKP,IPAD,1.0,
+,500,1.5,trial,0,100,100,100,,,,,,,,,,,100,0,100,,,,,10.6875,-,3,7.125,0,3,JKP,IPAD,1.0,
-,500,1,trial,0,101,101,101,,,,,,,,,,,101,0,101,,,,,7.125,-,1,7.125,1,3,JKP,IPAD,1.0,
+,425,1,trial,0,102,102,102,,,,,,,,,,,102,0,102,,,,,7.125,+,0,7.125,1,3,JKP,IPAD,1.0,
-,425,1.5,trial,0,103,103,103,,,,,,,,,,,103,0,103,,,,,10.6875,-,1,7.125,1,3,JKP,IPAD,1.0,
-,575,1.5,trial,0,104,104,104,,,,,,,,,,,104,0,104,,,,,10.6875,-,1,7.125,1,3,JKP,IPAD,1.0,
-,425,1,trial,0,105,105,105,,,,,,,,,,,105,0,105,,,,,7.125,-,0,7.125,1,3,JKP,IPAD,1.0,
+,575,1.5,trial,0,106,106,106,,,,,,,,,,,106,0,106,,,,,10.6875,+,1,7.125,1,3,JKP,IPAD,1.0,
+,425,1,trial,0,107,107,107,,,,,,,,,,,107,0,107,,,,,7.125,+,1,7.125,1,3,JKP,IPAD,1.0,
-,425,1,trial,0,108,108,108,,,,,,,,,,,108,0,108,,,,,7.125,-,1,7.125,1,3,JKP,IPAD,1.0,
+,575,1.5,trial,0,109,109,109,,,,,,,,,,,109,0,109,,,,,10.6875,+,1,7.125,1,3,JKP,IPAD,1.0,
-,500,1.5,trial,0,110,110,110,,,,,,,,,,,110,0,110,,,,,10.6875,-,1,7.125,1,3,JKP,IPAD,1.0,
-,425,1.5,trial,0,111,111,111,,,,,,,,,,,111,0,111,,,,,10.6875,-,1,7.125,1,3,JKP,IPAD,1.0,
+,575,1.5,trial,0,112,112,112,,,,,,,,,,,112,0,112,,,,,10.6875,+,0,7.125,1,3,JKP,IPAD,1.0,
-,500,1.5,trial,0,113,113,113,,,,,,,,,,,113,0,113,,,,,10.6875,-,0,7.125,1,3,JKP,IPAD,1.0,
+,500,1.5,trial,0,114,114,114,,,,,,,,,,,114,0,114,,,,,10.6875,+,1,7.125,1,3,JKP,IPAD,1.0,
-,575,1,trial,0,115,115,115,,,,,,,,,,,115,0,115,,,,,7.125,-,1,7.125,1,3,JKP,IPAD,1.0,
+,500,1,trial,0,116,116,116,,,,,,,,,,,116,0,116,,,,,7.125,+,1,7.125,1,3,JKP,IPAD,1.0,
-,425,1,trial,0,117,117,117,,,,,,,,,,,117,0,117,,,,,7.125,-,1,7.125,1,3,JKP,IPAD,1.0,
-,500,1.5,trial,0,118,118,118,,,,,,,,,,,118,0,118,,,,,10.6875,-,1,7.125,1,3,JKP,IPAD,1.0,
-,575,1.5,trial,0,119,119,119,,,,,,,,,,,119,0,119,,,,,10.6875,-,1,7.125,1,3,JKP,IPAD,1.0,
-,500,1,trial,0,120,120,120,,,,,,,,,,,120,0,120,,,,,7.125,-,1,7.125,1,3,JKP,IPAD,1.0,
+,500,1.5,trial,0,121,121,121,,,,,,,,,,,121,0,121,,,,,10.6875,+,1,7.125,1,3,JKP,IPAD,1.0,
+,425,1.5,trial,0,122,122,122,,,,,,,,,,,122,0,122,,,,,10.6875,+,1,7.125,1,3,JKP,IPAD,1.0,
-,575,1.5,trial,0,123,123,123,,,,,,,,,,,123,0,123,,,,,10.6875,-,1,7.125,1,3,JKP,IPAD,1.0,
-,425,1.5,trial,0,124,124,124,,,,,,,,,,,124,0,124,,,,,10.6875,-,0,7.125,1,3,JKP,IPAD,1.0,
-,425,1,trial,0,125,125,125,,,,,,,,,,,125,0,125,,,,,7.125,-,0,7.125,1,3,JKP,IPAD,1.0,
+,575,1,trial,0,126,126,126,,,,,,,,,,,126,0,126,,,,,7.125,+,0,7.125,1,3,JKP,IPAD,1.0,
+,425,1,trial,0,127,127,127,,,,,,,,,,,127,0,127,,,,,7.125,-,3,7.125,0,3,JKP,IPAD,1.0,
+,425,1.5,trial,0,128,128,128,,,,,,,,,,,128,0,128,,,,,10.6875,+,1,7.125,1,3,JKP,IPAD,1.0,
+,575,1,trial,0,129,129,129,,,,,,,,,,,129,0,129,,,,,7.125,+,3,7.125,1,3,JKP,IPAD,1.0,
-,425,1,trial,0,130,130,130,,,,,,,,,,,130,0,130,,,,,7.125,-,1,7.125,1,3,JKP,IPAD,1.0,
+,575,1,trial,0,131,131,131,,,,,,,,,,,131,0,131,,,,,7.125,+,0,7.125,1,3,JKP,IPAD,1.0,
-,425,1,trial,0,132,132,132,,,,,,,,,,,132,0,132,,,,,7.125,-,1,7.125,1,3,JKP,IPAD,1.0,
-,575,1,trial,0,133,133,133,,,,,,,,,,,133,0,133,,,,,7.125,-,1,7.125,1,3,JKP,IPAD,1.0,
+,575,1.5,trial,0,134,134,134,,,,,,,,,,,134,0,134,,,,,10.6875,+,2,7.125,1,3,JKP,IPAD,1.0,
-,575,1,trial,0,135,135,135,,,,,,,,,,,135,0,135,,,,,7.125,-,1,7.125,1,3,JKP,IPAD,1.0,
+,425,1,trial,0,136,136,136,,,,,,,,,,,136,0,136,,,,,7.125,+,0,7.125,1,3,JKP,IPAD,1.0,
+,575,1.5,trial,0,137,137,137,,,,,,,,,,,137,0,137,,,,,10.6875,+,1,7.125,1,3,JKP,IPAD,1.0,
-,575,1.5,trial,0,138,138,138,,,,,,,,,,,138,0,138,,,,,10.6875,-,0,7.125,1,3,JKP,IPAD,1.0,
-,575,1.5,trial,0,139,139,139,,,,,,,,,,,139,0,139,,,,,10.6875,-,1,7.125,1,3,JKP,IPAD,1.0,
+,500,1,trial,0,140,140,140,,,,,,,,,,,140,0,140,,,,,7.125,+,1,7.125,1,3,JKP,IPAD,1.0,
-,575,1,trial,0,141,141,141,,,,,,,,,,,141,0,141,,,,,7.125,-,0,7.125,1,3,JKP,IPAD,1.0,
+,425,1,trial,0,142,142,142,,,,,,,,,,,142,0,142,,,,,7.125,+,1,7.125,1,3,JKP,IPAD,1.0,
+,500,1.5,trial,0,143,143,143,,,,,,,,,,,143,0,143,,,,,10.6875,+,0,7.125,1,3,JKP,IPAD,1.0,
-,575,1.5,trial,0,144,144,144,,,,,,,,,,,144,0,144,,,,,10.6875,-,1,7.125,1,3,JKP,IPAD,1.0,
+,425,1,trial,0,145,145,145,,,,,,,,,,,145,0,145,,,,,7.125,+,1,7.125,1,3,JKP,IPAD,1.0,
+,500,1.5,trial,0,146,146,146,,,,,,,,,,,146,0,146,,,,,10.6875,+,3,7.125,1,3,JKP,IPAD,1.0,
-,500,1.5,trial,0,147,147,147,,,,,,,,,,,147,0,147,,,,,10.6875,-,0,7.125,1,3,JKP,IPAD,1.0,
+,575,1,trial,0,148,148,148,,,,,,,,,,,148,0,148,,,,,7.125,+,1,7.125,1,3,JKP,IPAD,1.0,
-,425,1.5,trial,0,149,149,149,,,,,,,,,,,149,0,149,,,,,10.6875,-,0,7.125,1,3,JKP,IPAD,1.0,
-,500,1,trial,0,150,150,150,,,,,,,,,,,150,0,150,,,,,7.125,-,0,7.125,1,3,JKP,IPAD,1.0,
+,500,1.5,trial,0,151,151,151,,,,,,,,,,,151,0,151,,,,,10.6875,+,1,7.125,1,3,JKP,IPAD,1.0,
+,425,1.5,trial,0,152,152,152,,,,,,,,,,,152,0,152,,,,,10.6875,+,3,7.125,1,3,JKP,IPAD,1.0,
+,500,1,trial,0,153,153,153,,,,,,,,,,,153,0,153,,,,,7.125,+,1,7.125,1,3,JKP,IPAD,1.0,
-,575,1.5,trial,0,154,154,154,,,,,,,,,,,154,0,154,,,,,10.6875,-,0,7.125,1,3,JKP,IPAD,1.0,
+,575,1,trial,0,155,155,155,,,,,,,,,,,155,0,155,,,,,7.125,+,2,7.125,1,3,JKP,IPAD,1.0,
+,500,1,trial,0,156,156,156,,,,,,,,,,,156,0,156,,,,,7.125,-,0,7.125,0,3,JKP,IPAD,1.0,
-,500,1,trial,0,157,157,157,,,,,,,,,,,157,0,157,,,,,7.125,-,1,7.125,1,3,JKP,IPAD,1.0,
+,425,1.5,trial,0,158,158,158,,,,,,,,,,,158,0,158,,,,,10.6875,+,0,7.125,1,3,JKP,IPAD,1.0,
+,575,1.5,trial,0,159,159,159,,,,,,,,,,,159,0,159,,,,,10.6875,-,0,7.125,0,3,JKP,IPAD,1.0,
-,500,1.5,trial,0,160,160,160,,,,,,,,,,,160,0,160,,,,,10.6875,-,1,7.125,1,3,JKP,IPAD,1.0,
-,425,1.5,trial,0,161,161,161,,,,,,,,,,,161,0,161,,,,,10.6875,-,1,7.125,1,3,JKP,IPAD,1.0,
+,425,1,trial,0,162,162,162,,,,,,,,,,,162,0,162,,,,,7.125,+,1,7.125,1,3,JKP,IPAD,1.0,
-,500,1,trial,0,163,163,163,,,,,,,,,,,163,0,163,,,,,7.125,-,0,7.125,1,3,JKP,IPAD,1.0,
+,575,1.5,trial,0,164,164,164,,,,,,,,,,,164,0,164,,,,,10.6875,+,0,7.125,1,3,JKP,IPAD,1.0,
+,500,1.5,trial,0,165,165,165,,,,,,,,,,,165,0,165,,,,,10.6875,+,1,7.125,1,3,JKP,IPAD,1.0,
+,500,1,trial,0,166,166,166,,,,,,,,,,,166,0,166,,,,,7.125,-,4,7.125,0,3,JKP,IPAD,1.0,
-,500,1.5,trial,0,167,167,167,,,,,,,,,,,167,0,167,,,,,10.6875,-,0,7.125,1,3,JKP,IPAD,1.0,
-,575,1,trial,0,168,168,168,,,,,,,,,,,168,0,168,,,,,7.125,-,1,7.125,1,3,JKP,IPAD,1.0,
-,425,1,trial,0,169,169,169,,,,,,,,,,,169,0,169,,,,,7.125,-,1,7.125,1,3,JKP,IPAD,1.0,
+,425,1.5,trial,0,170,170,170,,,,,,,,,,,170,0,170,,,,,10.6875,+,1,7.125,1,3,JKP,IPAD,1.0,
-,575,1.5,trial,0,171,171,171,,,,,,,,,,,171,0,171,,,,,10.6875,-,0,7.125,1,3,JKP,IPAD,1.0,
-,425,1.5,trial,0,172,172,172,,,,,,,,,,,172,0,172,,,,,10.6875,-,1,7.125,1,3,JKP,IPAD,1.0,
+,500,1,trial,0,173,173,173,,,,,,,,,,,173,0,173,,,,,7.125,+,1,7.125,1,3,JKP,IPAD,1.0,
-,500,1,trial,0,174,174,174,,,,,,,,,,,174,0,174,,,,,7.125,-,1,7.125,1,3,JKP,IPAD,1.0,
+,575,1.5,trial,0,175,175,175,,,,,,,,,,,175,0,175,,,,,10.6875,+,0,7.125,1,3,JKP,IPAD,1.0,
+,500,1.5,trial,0,176,176,176,,,,,,,,,,,176,0,176,,,,,10.6875,+,0,7.125,1,3,JKP,IPAD,1.0,
-,500,1,trial,0,177,177,177,,,,,,,,,,,177,0,177,,,,,7.125,-,1,7.125,1,3,JKP,IPAD,1.0,
+,425,1.5,trial,0,178,178,178,,,,,,,,,,,178,0,178,,,,,10.6875,+,1,7.125,1,3,JKP,IPAD,1.0,
-,500,1.5,trial,0,179,179,179,,,,,,,,,,,179,0,179,,,,,10.6875,-,1,7.125,1,3,JKP,IPAD,1.0,
-,425,1.5,trial,0,180,180,180,,,,,,,,,,,180,0,180,,,,,10.6875,-,1,7.125,1,3,JKP,IPAD,1.0,
-,575,1,trial,0,181,181,181,,,,,,,,,,,181,0,181,,,,,7.125,-,1,7.125,1,3,JKP,IPAD,1.0,
-,425,1,trial,0,182,182,182,,,,,,,,,,,182,0,182,,,,,7.125,-,1,7.125,1,3,JKP,IPAD,1.0,
-,500,1.5,trial,0,183,183,183,,,,,,,,,,,183,0,183,,,,,10.6875,-,1,7.125,1,3,JKP,IPAD,1.0,
+,575,1.5,trial,0,184,184,184,,,,,,,,,,,184,0,184,,,,,10.6875,-,2,7.125,0,3,JKP,IPAD,1.0,
-,425,1.5,trial,0,185,185,185,,,,,,,,,,,185,0,185,,,,,10.6875,-,1,7.125,1,3,JKP,IPAD,1.0,
+,500,1,trial,0,186,186,186,,,,,,,,,,,186,0,186,,,,,7.125,+,1,7.125,1,3,JKP,IPAD,1.0,
+,500,1.5,trial,0,187,187,187,,,,,,,,,,,187,0,187,,,,,10.6875,+,2,7.125,1,3,JKP,IPAD,1.0,
-,575,1.5,trial,0,188,188,188,,,,,,,,,,,188,0,188,,,,,10.6875,-,0,7.125,1,3,JKP,IPAD,1.0,
-,575,1.5,trial,0,189,189,189,,,,,,,,,,,189,0,189,,,,,10.6875,-,1,7.125,1,3,JKP,IPAD,1.0,
-,500,1.5,trial,0,190,190,190,,,,,,,,,,,190,0,190,,,,,10.6875,-,0,7.125,1,3,JKP,IPAD,1.0,
-,575,1,trial,0,191,191,191,,,,,,,,,,,191,0,191,,,,,7.125,-,1,7.125,1,3,JKP,IPAD,1.0,
+,500,1.5,trial,0,192,192,192,,,,,,,,,,,192,0,192,,,,,10.6875,+,0,7.125,1,3,JKP,IPAD,1.0,
+,425,1,trial,0,193,193,193,,,,,,,,,,,193,0,193,,,,,7.125,+,1,7.125,1,3,JKP,IPAD,1.0,
-,575,1.5,trial,0,194,194,194,,,,,,,,,,,194,0,194,,,,,10.6875,-,1,7.125,1,3,JKP,IPAD,1.0,
-,500,1.5,trial,0,195,195,195,,,,,,,,,,,195,0,195,,,,,10.6875,-,1,7.125,1,3,JKP,IPAD,1.0,
-,575,1,trial,0,196,196,196,,,,,,,,,,,196,0,196,,,,,7.125,-,0,7.125,1,3,JKP,IPAD,1.0,
-,575,1,trial,0,197,197,197,,,,,,,,,,,197,0,197,,,,,7.125,-,1,7.125,1,3,JKP,IPAD,1.0,
-,425,1.5,trial,0,198,198,198,,,,,,,,,,,198,0,198,,,,,10.6875,-,0,7.125,1,3,JKP,IPAD,1.0,
+,575,1.5,trial,0,199,199,199,,,,,,,,,,,199,0,199,,,,,10.6875,+,0,7.125,1,3,JKP,IPAD,1.0,
+,575,1.5,trial,0,200,200,200,,,,,,,,,,,200,0,200,,,,,10.6875,+,1,7.125,1,3,JKP,IPAD,1.0,
+,425,1.5,trial,0,201,201,201,,,,,,,,,,,201,0,201,,,,,10.6875,+,1,7.125,1,3,JKP,IPAD,1.0,
+,425,1,trial,0,202,202,202,,,,,,,,,,,202,0,202,,,,,7.125,+,2,7.125,1,3,JKP,IPAD,1.0,
+,425,1,trial,0,203,203,203,,,,,,,,,,,203,0,203,,,,,7.125,+,1,7.125,1,3,JKP,IPAD,1.0,
+,575,1,trial,0,204,204,204,,,,,,,,,,,204,0,204,,,,,7.125,+,1,7.125,1,3,JKP,IPAD,1.0,
-,500,1,trial,0,205,205,205,,,,,,,,,,,205,0,205,,,,,7.125,-,1,7.125,1,3,JKP,IPAD,1.0,
-,425,1,trial,0,206,206,206,,,,,,,,,,,206,0,206,,,,,7.125,-,0,7.125,1,3,JKP,IPAD,1.0,
-,575,1.5,trial,0,207,207,207,,,,,,,,,,,207,0,207,,,,,10.6875,-,2,7.125,1,3,JKP,IPAD,1.0,
-,425,1,trial,0,208,208,208,,,,,,,,,,,208,0,208,,,,,7.125,-,1,7.125,1,3,JKP,IPAD,1.0,
+,500,1,trial,0,209,209,209,,,,,,,,,,,209,0,209,,,,,7.125,+,1,7.125,1,3,JKP,IPAD,1.0,
-,500,1.5,trial,0,210,210,210,,,,,,,,,,,210,0,210,,,,,10.6875,-,2,7.125,1,3,JKP,IPAD,1.0,
+,575,1,trial,0,211,211,211,,,,,,,,,,,211,0,211,,,,,7.125,+,1,7.125,1,3,JKP,IPAD,1.0,
+,425,1,trial,0,212,212,212,,,,,,,,,,,212,0,212,,,,,7.125,+,0,7.125,1,3,JKP,IPAD,1.0,
-,575,1,trial,0,213,213,213,,,,,,,,,,,213,0,213,,,,,7.125,-,0,7.125,1,3,JKP,IPAD,1.0,
-,425,1.5,trial,0,214,214,214,,,,,,,,,,,214,0,214,,,,,10.6875,-,1,7.125,1,3,JKP,IPAD,1.0,
-,575,1.5,trial,0,215,215,215,,,,,,,,,,,215,0,215,,,,,10.6875,-,1,7.125,1,3,JKP,IPAD,1.0,
+,425,1.5,trial,0,216,216,216,,,,,,,,,,,216,0,216,,,,,10.6875,+,1,7.125,1,3,JKP,IPAD,1.0,
+,500,1.5,trial,0,217,217,217,,,,,,,,,,,217,0,217,,,,,10.6875,+,1,7.125,1,3,JKP,IPAD,1.0,
+,500,1.5,trial,0,218,218,218,,,,,,,,,,,218,0,218,,,,,10.6875,+,1,7.125,1,3,JKP,IPAD,1.0,
+,500,1,trial,0,219,219,219,,,,,,,,,,,219,0,219,,,,,7.125,+,1,7.125,1,3,JKP,IPAD,1.0,
+,575,1.5,trial,0,220,220,220,,,,,,,,,,,220,0,220,,,,,10.6875,+,0,7.125,1,3,JKP,IPAD,1.0,
+,500,1,trial,0,221,221,221,,,,,,,,,,,221,0,221,,,,,7.125,+,1,7.125,1,3,JKP,IPAD,1.0,
-,425,1,trial,0,222,222,222,,,,,,,,,,,222,0,222,,,,,7.125,-,1,7.125,1,3,JKP,IPAD,1.0,
+,425,1,trial,0,223,223,223,,,,,,,,,,,223,0,223,,,,,7.125,+,1,7.125,1,3,JKP,IPAD,1.0,
+,425,1.5,trial,0,224,224,224,,,,,,,,,,,224,0,224,,,,,10.6875,+,2,7.125,1,3,JKP,IPAD,1.0,
+,425,1.5,trial,0,225,225,225,,,,,,,,,,,225,0,225,,,,,10.6875,+,3,7.125,1,3,JKP,IPAD,1.0,
-,500,1,trial,0,226,226,226,,,,,,,,,,,226,0,226,,,,,7.125,-,0,7.125,1,3,JKP,IPAD,1.0,
+,500,1,trial,0,227,227,227,,,,,,,,,,,227,0,227,,,,,7.125,+,1,7.125,1,3,JKP,IPAD,1.0,
+,425,1.5,trial,0,228,228,228,,,,,,,,,,,228,0,228,,,,,10.6875,+,1,7.125,1,3,JKP,IPAD,1.0,
-,500,1.5,trial,0,229,229,229,,,,,,,,,,,229,0,229,,,,,10.6875,-,1,7.125,1,3,JKP,IPAD,1.0,
-,500,1,trial,0,230,230,230,,,,,,,,,,,230,0,230,,,,,7.125,-,1,7.125,1,3,JKP,IPAD,1.0,
-,425,1,trial,0,231,231,231,,,,,,,,,,,231,0,231,,,,,7.125,-,1,7.125,1,3,JKP,IPAD,1.0,
+,575,1,trial,0,232,232,232,,,,,,,,,,,232,0,232,,,,,7.125,+,0,7.125,1,3,JKP,IPAD,1.0,
+,575,1,trial,0,233,233,233,,,,,,,,,,,233,0,233,,,,,7.125,+,1,7.125,1,3,JKP,IPAD,1.0,
+,575,1,trial,0,234,234,234,,,,,,,,,,,234,0,234,,,,,7.125,+,0,7.125,1,3,JKP,IPAD,1.0,
-,425,1,trial,0,235,235,235,,,,,,,,,,,235,0,235,,,,,7.125,-,1,7.125,1,3,JKP,IPAD,1.0,
-,425,1.5,trial,0,236,236,236,,,,,,,,,,,236,0,236,,,,,10.6875,-,2,7.125,1,3,JKP,IPAD,1.0,
+,575,1.5,trial,0,237,237,237,,,,,,,,,,,237,0,237,,,,,10.6875,+,1,7.125,1,3,JKP,IPAD,1.0,
+,500,1.5,trial,0,238,238,238,,,,,,,,,,,238,0,238,,,,,10.6875,+,3,7.125,1,3,JKP,IPAD,1.0,
-,500,1.5,trial,0,239,239,239,,,,,,,,,,,239,0,239,,,,,10.6875,-,1,7.125,1,3,JKP,IPAD,1.0,
-,500,1,trial,0,240,240,240,,,,,,,,,,,240,0,240,,,,,7.125,-,1,7.125,1,3,JKP,IPAD,1.0,
-,575,1,trial,0,241,241,241,,,,,,,,,,,241,0,241,,,,,7.125,-,1,7.125,1,3,JKP,IPAD,1.0,
-,500,1,trial,0,242,242,242,,,,,,,,,,,242,0,242,,,,,7.125,-,1,7.125,1,3,JKP,IPAD,1.0,
-,425,1.5,trial,0,243,243,243,,,,,,,,,,,243,0,243,,,,,10.6875,-,1,7.125,1,3,JKP,IPAD,1.0,
