shift,interval,difficulty,event,.thisRepN,.thisTrialN,.thisN,.thisIndex,.label,.startVal,.nReversals,.stepSizes,.nUp,.nDown,.minVal,.maxVal,.stepType,.shift,.thisIndex,.thisRepN,.thisN,.direction,.stepSize,.intensity,.response,shift_size,response,rt,jnd,correct,subject,experimenter,experiment,version,
,,,,0,-1,-1,0,l-,25,8,"[8, 8, 4, 4, 2, 2, 1, 1]",1,2,0,100,lin,-,0,0,-1,start,8,25,True,,,,,,25,JKP,IPAD,1.1,
,,,,0,-1,-1,0,s-,1,8,"[8, 8, 4, 4, 2, 2, 1, 1]",1,2,0,100,lin,-,0,0,-1,start,8,1,False,,,,,,25,JKP,IPAD,1.1,
,,,,0,-1,-1,0,l+,25,8,"[8, 8, 4, 4, 2, 2, 1, 1]",1,2,0,100,lin,+,0,0,-1,start,8,25,True,,,,,,25,JKP,IPAD,1.1,
,,,,0,-1,-1,0,s+,1,8,"[8, 8, 4, 4, 2, 2, 1, 1]",1,2,0,100,lin,+,0,0,-1,start,8,1,True,,,,,,25,JKP,IPAD,1.1,
,,,,0,-1,-1,0,s-,1,8,"[8, 8, 4, 4, 2, 2, 1, 1]",1,2,0,100,lin,-,0,0,-1,up,8,9,True,,,,,,25,JKP,IPAD,1.1,
,,,,0,-1,-1,0,l-,25,8,"[8, 8, 4, 4, 2, 2, 1, 1]",1,2,0,100,lin,-,0,0,-1,down,8,17,True,,,,,,25,JKP,IPAD,1.1,
,,,,0,-1,-1,0,s+,1,8,"[8, 8, 4, 4, 2, 2, 1, 1]",1,2,0,100,lin,+,0,0,-1,down,8,0,False,,,,,,25,JKP,IPAD,1.1,
,,,,0,-1,-1,0,l+,25,8,"[8, 8, 4, 4, 2, 2, 1, 1]",1,2,0,100,lin,+,0,0,-1,down,8,17,True,,,,,,25,JKP,IPAD,1.1,
,,,,0,-1,-1,0,s-,1,8,"[8, 8, 4, 4, 2, 2, 1, 1]",1,2,0,100,lin,-,0,0,-1,down,8,1,True,,,,,,25,JKP,IPAD,1.1,
,,,,0,-1,-1,0,s+,1,8,"[8, 8, 4, 4, 2, 2, 1, 1]",1,2,0,100,lin,+,0,0,-1,up,8,8,True,,,,,,25,JKP,IPAD,1.1,
,,,,0,-1,-1,0,l+,25,8,"[8, 8, 4, 4, 2, 2, 1, 1]",1,2,0,100,lin,+,0,0,-1,down,8,9,True,,,,,,25,JKP,IPAD,1.1,
,,,,0,-1,-1,0,l-,25,8,"[8, 8, 4, 4, 2, 2, 1, 1]",1,2,0,100,lin,-,0,0,-1,down,8,9,False,,,,,,25,JKP,IPAD,1.1,
,,,,0,-1,-1,0,s+,1,8,"[8, 8, 4, 4, 2, 2, 1, 1]",1,2,0,100,lin,+,0,0,-1,up,8,8,True,,,,,,25,JKP,IPAD,1.1,
,,,,0,-1,-1,0,s-,1,8,"[8, 8, 4, 4, 2, 2, 1, 1]",1,2,0,100,lin,-,0,0,-1,down,8,1,True,,,,,,25,JKP,IPAD,1.1,
,,,,0,-1,-1,0,l-,25,8,"[8, 8, 4, 4, 2, 2, 1, 1]",1,2,0,100,lin,-,0,0,-1,up,8,17,False,,,,,,25,JKP,IPAD,1.1,
,,,,0,-1,-1,0,l+,25,8,"[8, 8, 4, 4, 2, 2, 1, 1]",1,2,0,100,lin,+,0,0,-1,down,8,1,False,,,,,,25,JKP,IPAD,1.1,
,,,,0,-1,-1,0,s-,1,8,"[8, 8, 4, 4, 2, 2, 1, 1]",1,2,0,100,lin,-,0,0,-1,down,8,0,False,,,,,,25,JKP,IPAD,1.1,
,,,,0,-1,-1,0,l+,25,8,"[8, 8, 4, 4, 2, 2, 1, 1]",1,2,0,100,lin,+,0,0,-1,up,8,9,True,,,,,,25,JKP,IPAD,1.1,
,,,,0,-1,-1,0,s+,1,8,"[8, 8, 4, 4, 2, 2, 1, 1]",1,2,0,100,lin,+,0,0,-1,down,4,4,False,,,,,,25,JKP,IPAD,1.1,
,,,,0,-1,-1,0,l-,25,8,"[8, 8, 4, 4, 2, 2, 1, 1]",1,2,0,100,lin,-,0,0,-1,up,8,25,True,,,,,,25,JKP,IPAD,1.1,
,,,,0,-1,-1,0,l+,25,8,"[8, 8, 4, 4, 2, 2, 1, 1]",1,2,0,100,lin,+,0,0,-1,up,8,9,True,,,,,,25,JKP,IPAD,1.1,
,,,,0,-1,-1,0,s-,1,8,"[8, 8, 4, 4, 2, 2, 1, 1]",1,2,0,100,lin,-,0,0,-1,up,4,4,True,,,,,,25,JKP,IPAD,1.1,
,,,,0,-1,-1,0,s+,1,8,"[8, 8, 4, 4, 2, 2, 1, 1]",1,2,0,100,lin,+,0,0,-1,up,4,8,True,,,,,,25,JKP,IPAD,1.1,
,,,,0,-1,-1,0,l-,25,8,"[8, 8, 4, 4, 2, 2, 1, 1]",1,2,0,100,lin,-,0,0,-1,up,8,25,True,,,,,,25,JKP,IPAD,1.1,
,,,,0,-1,-1,0,l+,25,8,"[8, 8, 4, 4, 2, 2, 1, 1]",1,2,0,100,lin,+,0,0,-1,down,4,5,False,,,,,,25,JKP,IPAD,1.1,
,,,,0,-1,-1,0,s-,1,8,"[8, 8, 4, 4, 2, 2, 1, 1]",1,2,0,100,lin,-,0,0,-1,up,4,4,True,,,,,,25,JKP,IPAD,1.1,
,,,,0,-1,-1,0,l-,25,8,"[8, 8, 4, 4, 2, 2, 1, 1]",1,2,0,100,lin,-,0,0,-1,down,4,21,False,,,,,,25,JKP,IPAD,1.1,
,,,,0,-1,-1,0,s+,1,8,"[8, 8, 4, 4, 2, 2, 1, 1]",1,2,0,100,lin,+,0,0,-1,up,4,8,True,,,,,,25,JKP,IPAD,1.1,
,,,,0,-1,-1,0,l+,25,8,"[8, 8, 4, 4, 2, 2, 1, 1]",1,2,0,100,lin,+,0,0,-1,up,4,9,True,,,,,,25,JKP,IPAD,1.1,
,,,,0,-1,-1,0,s-,1,8,"[8, 8, 4, 4, 2, 2, 1, 1]",1,2,0,100,lin,-,0,0,-1,down,4,0,False,,,,,,25,JKP,IPAD,1.1,
,,,,0,-1,-1,0,s+,1,8,"[8, 8, 4, 4, 2, 2, 1, 1]",1,2,0,100,lin,+,0,0,-1,down,2,6,True,,,,,,25,JKP,IPAD,1.1,
,,,,0,-1,-1,0,l-,25,8,"[8, 8, 4, 4, 2, 2, 1, 1]",1,2,0,100,lin,-,0,0,-1,up,4,25,True,,,,,,25,JKP,IPAD,1.1,
,,,,0,-1,-1,0,s+,1,8,"[8, 8, 4, 4, 2, 2, 1, 1]",1,2,0,100,lin,+,0,0,-1,down,2,6,True,,,,,,25,JKP,IPAD,1.1,
,,,,0,-1,-1,0,l+,25,8,"[8, 8, 4, 4, 2, 2, 1, 1]",1,2,0,100,lin,+,0,0,-1,up,4,9,True,,,,,,25,JKP,IPAD,1.1,
,,,,0,-1,-1,0,l-,25,8,"[8, 8, 4, 4, 2, 2, 1, 1]",1,2,0,100,lin,-,0,0,-1,up,4,25,True,,,,,,25,JKP,IPAD,1.1,
,,,,0,-1,-1,0,s-,1,8,"[8, 8, 4, 4, 2, 2, 1, 1]",1,2,0,100,lin,-,0,0,-1,up,2,2,False,,,,,,25,JKP,IPAD,1.1,
,,,,0,-1,-1,0,l+,25,8,"[8, 8, 4, 4, 2, 2, 1, 1]",1,2,0,100,lin,+,0,0,-1,down,2,7,True,,,,,,25,JKP,IPAD,1.1,
,,,,0,-1,-1,0,s-,1,8,"[8, 8, 4, 4, 2, 2, 1, 1]",1,2,0,100,lin,-,0,0,-1,up,2,4,False,,,,,,25,JKP,IPAD,1.1,
,,,,0,-1,-1,0,l-,25,8,"[8, 8, 4, 4, 2, 2, 1, 1]",1,2,0,100,lin,-,0,0,-1,down,2,23,True,,,,,,25,JKP,IPAD,1.1,
,,,,0,-1,-1,0,s+,1,8,"[8, 8, 4, 4, 2, 2, 1, 1]",1,2,0,100,lin,+,0,0,-1,down,2,4,True,,,,,,25,JKP,IPAD,1.1,
,,,,0,-1,-1,0,l-,25,8,"[8, 8, 4, 4, 2, 2, 1, 1]",1,2,0,100,lin,-,0,0,-1,down,2,23,True,,,,,,25,JKP,IPAD,1.1,
,,,,0,-1,-1,0,s+,1,8,"[8, 8, 4, 4, 2, 2, 1, 1]",1,2,0,100,lin,+,0,0,-1,down,2,4,True,,,,,,25,JKP,IPAD,1.1,
,,,,0,-1,-1,0,s-,1,8,"[8, 8, 4, 4, 2, 2, 1, 1]",1,2,0,100,lin,-,0,0,-1,up,2,6,True,,,,,,25,JKP,IPAD,1.1,
,,,,0,-1,-1,0,l+,25,8,"[8, 8, 4, 4, 2, 2, 1, 1]",1,2,0,100,lin,+,0,0,-1,down,2,7,False,,,,,,25,JKP,IPAD,1.1,
,,,,0,-1,-1,0,s+,1,8,"[8, 8, 4, 4, 2, 2, 1, 1]",1,2,0,100,lin,+,0,0,-1,down,2,2,True,,,,,,25,JKP,IPAD,1.1,
,,,,0,-1,-1,0,l-,25,8,"[8, 8, 4, 4, 2, 2, 1, 1]",1,2,0,100,lin,-,0,0,-1,down,2,21,True,,,,,,25,JKP,IPAD,1.1,
,,,,0,-1,-1,0,s-,1,8,"[8, 8, 4, 4, 2, 2, 1, 1]",1,2,0,100,lin,-,0,0,-1,up,2,6,False,,,,,,25,JKP,IPAD,1.1,
,,,,0,-1,-1,0,l+,25,8,"[8, 8, 4, 4, 2, 2, 1, 1]",1,2,0,100,lin,+,0,0,-1,up,2,9,True,,,,,,25,JKP,IPAD,1.1,
,,,,0,-1,-1,0,s+,1,8,"[8, 8, 4, 4, 2, 2, 1, 1]",1,2,0,100,lin,+,0,0,-1,down,2,2,False,,,,,,25,JKP,IPAD,1.1,
,,,,0,-1,-1,0,s-,1,8,"[8, 8, 4, 4, 2, 2, 1, 1]",1,2,0,100,lin,-,0,0,-1,up,2,8,False,,,,,,25,JKP,IPAD,1.1,
,,,,0,-1,-1,0,l+,25,8,"[8, 8, 4, 4, 2, 2, 1, 1]",1,2,0,100,lin,+,0,0,-1,up,2,9,False,,,,,,25,JKP,IPAD,1.1,
,,,,0,-1,-1,0,l-,25,8,"[8, 8, 4, 4, 2, 2, 1, 1]",1,2,0,100,lin,-,0,0,-1,down,2,21,True,,,,,,25,JKP,IPAD,1.1,
,,,,0,-1,-1,0,s-,1,8,"[8, 8, 4, 4, 2, 2, 1, 1]",1,2,0,100,lin,-,0,0,-1,up,2,10,True,,,,,,25,JKP,IPAD,1.1,
,,,,0,-1,-1,0,s+,1,8,"[8, 8, 4, 4, 2, 2, 1, 1]",1,2,0,100,lin,+,0,0,-1,up,2,4,False,,,,,,25,JKP,IPAD,1.1,
,,,,0,-1,-1,0,l+,25,8,"[8, 8, 4, 4, 2, 2, 1, 1]",1,2,0,100,lin,+,0,0,-1,up,2,11,True,,,,,,25,JKP,IPAD,1.1,
,,,,0,-1,-1,0,l-,25,8,"[8, 8, 4, 4, 2, 2, 1, 1]",1,2,0,100,lin,-,0,0,-1,down,2,19,True,,,,,,25,JKP,IPAD,1.1,
,,,,0,-1,-1,0,l-,25,8,"[8, 8, 4, 4, 2, 2, 1, 1]",1,2,0,100,lin,-,0,0,-1,down,2,19,True,,,,,,25,JKP,IPAD,1.1,
,,,,0,-1,-1,0,s+,1,8,"[8, 8, 4, 4, 2, 2, 1, 1]",1,2,0,100,lin,+,0,0,-1,up,2,6,True,,,,,,25,JKP,IPAD,1.1,
,,,,0,-1,-1,0,s-,1,8,"[8, 8, 4, 4, 2, 2, 1, 1]",1,2,0,100,lin,-,0,0,-1,up,2,10,True,,,,,,25,JKP,IPAD,1.1,
,,,,0,-1,-1,0,l+,25,8,"[8, 8, 4, 4, 2, 2, 1, 1]",1,2,0,100,lin,+,0,0,-1,up,2,11,True,,,,,,25,JKP,IPAD,1.1,
,,,,0,-1,-1,0,s-,1,8,"[8, 8, 4, 4, 2, 2, 1, 1]",1,2,0,100,lin,-,0,0,-1,down,2,8,True,,,,,,25,JKP,IPAD,1.1,
,,,,0,-1,-1,0,l-,25,8,"[8, 8, 4, 4, 2, 2, 1, 1]",1,2,0,100,lin,-,0,0,-1,down,2,17,False,,,,,,25,JKP,IPAD,1.1,
,,,,0,-1,-1,0,l+,25,8,"[8, 8, 4, 4, 2, 2, 1, 1]",1,2,0,100,lin,+,0,0,-1,down,1,10,True,,,,,,25,JKP,IPAD,1.1,
,,,,0,-1,-1,0,s+,1,8,"[8, 8, 4, 4, 2, 2, 1, 1]",1,2,0,100,lin,+,0,0,-1,up,2,6,True,,,,,,25,JKP,IPAD,1.1,
,,,,0,-1,-1,0,s+,1,8,"[8, 8, 4, 4, 2, 2, 1, 1]",1,2,0,100,lin,+,0,0,-1,down,1,5,True,,,,,,25,JKP,IPAD,1.1,
,,,,0,-1,-1,0,l-,25,8,"[8, 8, 4, 4, 2, 2, 1, 1]",1,2,0,100,lin,-,0,0,-1,up,2,19,False,,,,,,25,JKP,IPAD,1.1,
,,,,0,-1,-1,0,l+,25,8,"[8, 8, 4, 4, 2, 2, 1, 1]",1,2,0,100,lin,+,0,0,-1,down,1,10,True,,,,,,25,JKP,IPAD,1.1,
,,,,0,-1,-1,0,s-,1,8,"[8, 8, 4, 4, 2, 2, 1, 1]",1,2,0,100,lin,-,0,0,-1,down,2,8,True,,,,,,25,JKP,IPAD,1.1,
,,,,0,-1,-1,0,s-,1,8,"[8, 8, 4, 4, 2, 2, 1, 1]",1,2,0,100,lin,-,0,0,-1,down,2,6,False,,,,,,25,JKP,IPAD,1.1,
,,,,0,-1,-1,0,l-,25,8,"[8, 8, 4, 4, 2, 2, 1, 1]",1,2,0,100,lin,-,0,0,-1,up,2,21,False,,,,,,25,JKP,IPAD,1.1,
,,,,0,-1,-1,0,l+,25,8,"[8, 8, 4, 4, 2, 2, 1, 1]",1,2,0,100,lin,+,0,0,-1,down,1,9,True,,,,,,25,JKP,IPAD,1.1,
,,,,0,-1,-1,0,s+,1,8,"[8, 8, 4, 4, 2, 2, 1, 1]",1,2,0,100,lin,+,0,0,-1,down,1,5,True,,,,,,25,JKP,IPAD,1.1,
,,,,0,-1,-1,0,s-,1,8,"[8, 8, 4, 4, 2, 2, 1, 1]",1,2,0,100,lin,-,0,0,-1,up,1,7,True,,,,,,25,JKP,IPAD,1.1,
,,,,0,-1,-1,0,l-,25,8,"[8, 8, 4, 4, 2, 2, 1, 1]",1,2,0,100,lin,-,0,0,-1,up,2,23,False,,,,,,25,JKP,IPAD,1.1,
,,,,0,-1,-1,0,l+,25,8,"[8, 8, 4, 4, 2, 2, 1, 1]",1,2,0,100,lin,+,0,0,-1,down,1,9,True,,,,,,25,JKP,IPAD,1.1,
,,,,0,-1,-1,0,s+,1,8,"[8, 8, 4, 4, 2, 2, 1, 1]",1,2,0,100,lin,+,0,0,-1,down,1,4,True,,,,,,25,JKP,IPAD,1.1,
,,,,0,-1,-1,0,s+,1,8,"[8, 8, 4, 4, 2, 2, 1, 1]",1,2,0,100,lin,+,0,0,-1,down,1,4,False,,,,,,25,JKP,IPAD,1.1,
,,,,0,-1,-1,0,l-,25,8,"[8, 8, 4, 4, 2, 2, 1, 1]",1,2,0,100,lin,-,0,0,-1,up,2,25,True,,,,,,25,JKP,IPAD,1.1,
,,,,0,-1,-1,0,l+,25,8,"[8, 8, 4, 4, 2, 2, 1, 1]",1,2,0,100,lin,+,0,0,-1,down,1,8,False,,,,,,25,JKP,IPAD,1.1,
,,,,0,-1,-1,0,s-,1,8,"[8, 8, 4, 4, 2, 2, 1, 1]",1,2,0,100,lin,-,0,0,-1,up,1,7,False,,,,,,25,JKP,IPAD,1.1,
,,,,0,-1,-1,0,s-,1,8,"[8, 8, 4, 4, 2, 2, 1, 1]",1,2,0,100,lin,-,0,0,-1,up,1,8,False,,,,,,25,JKP,IPAD,1.1,
,,,,0,-1,-1,0,s+,1,8,"[8, 8, 4, 4, 2, 2, 1, 1]",1,2,0,100,lin,+,0,0,-1,up,1,5,True,,,,,,25,JKP,IPAD,1.1,
,,,,0,-1,-1,0,l+,25,8,"[8, 8, 4, 4, 2, 2, 1, 1]",1,2,0,100,lin,+,0,0,-1,up,1,9,True,,,,,,25,JKP,IPAD,1.1,
,,,,0,-1,-1,0,l-,25,8,"[8, 8, 4, 4, 2, 2, 1, 1]",1,2,0,100,lin,-,0,0,-1,up,2,25,False,,,,,,25,JKP,IPAD,1.1,
,,,,0,-1,-1,0,s-,1,8,"[8, 8, 4, 4, 2, 2, 1, 1]",1,2,0,100,lin,-,0,0,-1,up,1,9,True,,,,,,25,JKP,IPAD,1.1,
,,,,0,-1,-1,0,l+,25,8,"[8, 8, 4, 4, 2, 2, 1, 1]",1,2,0,100,lin,+,0,0,-1,up,1,9,True,,,,,,25,JKP,IPAD,1.1,
,,,,0,-1,-1,0,l-,25,8,"[8, 8, 4, 4, 2, 2, 1, 1]",1,2,0,100,lin,-,0,0,-1,up,2,27,True,,,,,,25,JKP,IPAD,1.1,
,,,,0,-1,-1,0,s+,1,8,"[8, 8, 4, 4, 2, 2, 1, 1]",1,2,0,100,lin,+,0,0,-1,up,1,5,True,,,,,,25,JKP,IPAD,1.1,
,,,,0,-1,-1,0,s-,1,8,"[8, 8, 4, 4, 2, 2, 1, 1]",1,2,0,100,lin,-,0,0,-1,up,1,9,True,,,,,,25,JKP,IPAD,1.1,
,,,,0,-1,-1,0,l-,25,8,"[8, 8, 4, 4, 2, 2, 1, 1]",1,2,0,100,lin,-,0,0,-1,up,2,27,True,,,,,,25,JKP,IPAD,1.1,
,,,,0,-1,-1,0,s-,1,8,"[8, 8, 4, 4, 2, 2, 1, 1]",1,2,0,100,lin,-,0,0,-1,down,1,8,True,,,,,,25,JKP,IPAD,1.1,
,,,,0,-1,-1,0,l-,25,8,"[8, 8, 4, 4, 2, 2, 1, 1]",1,2,0,100,lin,-,0,0,-1,down,1,26,False,,,,,,25,JKP,IPAD,1.1,
,,,,0,-1,-1,0,s-,1,8,"[8, 8, 4, 4, 2, 2, 1, 1]",1,2,0,100,lin,-,0,0,-1,down,1,8,False,,,,,,25,JKP,IPAD,1.1,
,,,,0,-1,-1,0,l-,25,8,"[8, 8, 4, 4, 2, 2, 1, 1]",1,2,0,100,lin,-,0,0,-1,up,1,27,True,,,,,,25,JKP,IPAD,1.1,
,,,,0,-1,-1,0,l-,25,8,"[8, 8, 4, 4, 2, 2, 1, 1]",1,2,0,100,lin,-,0,0,-1,up,1,27,True,,,,,,25,JKP,IPAD,1.1,
+,500,4,practice,0,0,0,0,,,,,,,,,,,0,0,0,,,,,45.5,+,1,11.375,1,25,JKP,IPAD,1.1,
+,500,4,practice,0,1,1,1,,,,,,,,,,,1,0,1,,,,,45.5,+,1,11.375,1,25,JKP,IPAD,1.1,
-,500,4,practice,0,2,2,2,,,,,,,,,,,2,0,2,,,,,45.5,-,0,11.375,1,25,JKP,IPAD,1.1,
-,500,4,practice,0,3,3,3,,,,,,,,,,,3,0,3,,,,,45.5,-,0,11.375,1,25,JKP,IPAD,1.1,
-,575,0.5,trial,0,4,4,4,,,,,,,,,,,4,0,4,,,,,5.6875,-,0,11.375,1,25,JKP,IPAD,1.1,
-,425,1,trial,0,5,5,5,,,,,,,,,,,5,0,5,,,,,11.375,-,0,11.375,1,25,JKP,IPAD,1.1,
-,575,1,trial,0,6,6,6,,,,,,,,,,,6,0,6,,,,,11.375,-,0,11.375,1,25,JKP,IPAD,1.1,
+,500,1,trial,0,7,7,7,,,,,,,,,,,7,0,7,,,,,11.375,+,1,11.375,1,25,JKP,IPAD,1.1,
+,575,1,trial,0,8,8,8,,,,,,,,,,,8,0,8,,,,,11.375,+,1,11.375,1,25,JKP,IPAD,1.1,
+,425,0.5,trial,0,9,9,9,,,,,,,,,,,9,0,9,,,,,5.6875,+,0,11.375,1,25,JKP,IPAD,1.1,
+,425,0.5,trial,0,10,10,10,,,,,,,,,,,10,0,10,,,,,5.6875,+,0,11.375,1,25,JKP,IPAD,1.1,
-,575,1,trial,0,11,11,11,,,,,,,,,,,11,0,11,,,,,11.375,-,1,11.375,1,25,JKP,IPAD,1.1,
-,500,1,trial,0,12,12,12,,,,,,,,,,,12,0,12,,,,,11.375,-,1,11.375,1,25,JKP,IPAD,1.1,
-,500,0.5,trial,0,13,13,13,,,,,,,,,,,13,0,13,,,,,5.6875,-,0,11.375,1,25,JKP,IPAD,1.1,
-,425,0.5,trial,0,14,14,14,,,,,,,,,,,14,0,14,,,,,5.6875,-,1,11.375,1,25,JKP,IPAD,1.1,
+,500,0.5,trial,0,15,15,15,,,,,,,,,,,15,0,15,,,,,5.6875,+,1,11.375,1,25,JKP,IPAD,1.1,
+,500,1,trial,0,16,16,16,,,,,,,,,,,16,0,16,,,,,11.375,+,0,11.375,1,25,JKP,IPAD,1.1,
-,575,1,trial,0,17,17,17,,,,,,,,,,,17,0,17,,,,,11.375,-,0,11.375,1,25,JKP,IPAD,1.1,
-,425,0.5,trial,0,18,18,18,,,,,,,,,,,18,0,18,,,,,5.6875,-,1,11.375,1,25,JKP,IPAD,1.1,
-,575,0.5,trial,0,19,19,19,,,,,,,,,,,19,0,19,,,,,5.6875,-,0,11.375,1,25,JKP,IPAD,1.1,
+,575,1,trial,0,20,20,20,,,,,,,,,,,20,0,20,,,,,11.375,+,1,11.375,1,25,JKP,IPAD,1.1,
-,425,0.5,trial,0,21,21,21,,,,,,,,,,,21,0,21,,,,,5.6875,-,4,11.375,1,25,JKP,IPAD,1.1,
-,425,1,trial,0,22,22,22,,,,,,,,,,,22,0,22,,,,,11.375,-,0,11.375,1,25,JKP,IPAD,1.1,
-,500,1,trial,0,23,23,23,,,,,,,,,,,23,0,23,,,,,11.375,-,2,11.375,1,25,JKP,IPAD,1.1,
+,500,1,trial,0,24,24,24,,,,,,,,,,,24,0,24,,,,,11.375,+,1,11.375,1,25,JKP,IPAD,1.1,
+,425,0.5,trial,0,25,25,25,,,,,,,,,,,25,0,25,,,,,5.6875,+,1,11.375,1,25,JKP,IPAD,1.1,
-,575,0.5,trial,0,26,26,26,,,,,,,,,,,26,0,26,,,,,5.6875,-,2,11.375,1,25,JKP,IPAD,1.1,
+,500,1,trial,0,27,27,27,,,,,,,,,,,27,0,27,,,,,11.375,+,0,11.375,1,25,JKP,IPAD,1.1,
-,575,1,trial,0,28,28,28,,,,,,,,,,,28,0,28,,,,,11.375,-,1,11.375,1,25,JKP,IPAD,1.1,
+,425,1,trial,0,29,29,29,,,,,,,,,,,29,0,29,,,,,11.375,+,1,11.375,1,25,JKP,IPAD,1.1,
-,425,0.5,trial,0,30,30,30,,,,,,,,,,,30,0,30,,,,,5.6875,-,1,11.375,1,25,JKP,IPAD,1.1,
+,425,1,trial,0,31,31,31,,,,,,,,,,,31,0,31,,,,,11.375,+,0,11.375,1,25,JKP,IPAD,1.1,
+,575,0.5,trial,0,32,32,32,,,,,,,,,,,32,0,32,,,,,5.6875,+,1,11.375,1,25,JKP,IPAD,1.1,
+,500,0.5,trial,0,33,33,33,,,,,,,,,,,33,0,33,,,,,5.6875,+,2,11.375,1,25,JKP,IPAD,1.1,
+,500,0.5,trial,0,34,34,34,,,,,,,,,,,34,0,34,,,,,5.6875,+,1,11.375,1,25,JKP,IPAD,1.1,
+,500,1,trial,0,35,35,35,,,,,,,,,,,35,0,35,,,,,11.375,+,1,11.375,1,25,JKP,IPAD,1.1,
+,425,1,trial,0,36,36,36,,,,,,,,,,,36,0,36,,,,,11.375,+,1,11.375,1,25,JKP,IPAD,1.1,
-,500,0.5,trial,0,37,37,37,,,,,,,,,,,37,0,37,,,,,5.6875,-,2,11.375,1,25,JKP,IPAD,1.1,
+,425,1,trial,0,38,38,38,,,,,,,,,,,38,0,38,,,,,11.375,-,6,11.375,0,25,JKP,IPAD,1.1,
+,575,0.5,trial,0,39,39,39,,,,,,,,,,,39,0,39,,,,,5.6875,+,3,11.375,1,25,JKP,IPAD,1.1,
-,575,1,trial,0,40,40,40,,,,,,,,,,,40,0,40,,,,,11.375,-,1,11.375,1,25,JKP,IPAD,1.1,
+,500,0.5,trial,0,41,41,41,,,,,,,,,,,41,0,41,,,,,5.6875,+,1,11.375,1,25,JKP,IPAD,1.1,
+,500,0.5,trial,0,42,42,42,,,,,,,,,,,42,0,42,,,,,5.6875,+,1,11.375,1,25,JKP,IPAD,1.1,
+,425,1,trial,0,43,43,43,,,,,,,,,,,43,0,43,,,,,11.375,+,1,11.375,1,25,JKP,IPAD,1.1,
-,425,1,trial,0,44,44,44,,,,,,,,,,,44,0,44,,,,,11.375,-,0,11.375,1,25,JKP,IPAD,1.1,
+,425,0.5,trial,0,45,45,45,,,,,,,,,,,45,0,45,,,,,5.6875,+,0,11.375,1,25,JKP,IPAD,1.1,
+,575,0.5,trial,0,46,46,46,,,,,,,,,,,46,0,46,,,,,5.6875,-,1,11.375,0,25,JKP,IPAD,1.1,
-,575,0.5,trial,0,47,47,47,,,,,,,,,,,47,0,47,,,,,5.6875,-,0,11.375,1,25,JKP,IPAD,1.1,
+,575,1,trial,0,48,48,48,,,,,,,,,,,48,0,48,,,,,11.375,+,1,11.375,1,25,JKP,IPAD,1.1,
-,500,1,trial,0,49,49,49,,,,,,,,,,,49,0,49,,,,,11.375,-,1,11.375,1,25,JKP,IPAD,1.1,
-,425,1,trial,0,50,50,50,,,,,,,,,,,50,0,50,,,,,11.375,-,1,11.375,1,25,JKP,IPAD,1.1,
-,500,1,trial,0,51,51,51,,,,,,,,,,,51,0,51,,,,,11.375,-,1,11.375,1,25,JKP,IPAD,1.1,
+,425,0.5,trial,0,52,52,52,,,,,,,,,,,52,0,52,,,,,5.6875,+,1,11.375,1,25,JKP,IPAD,1.1,
+,575,1,trial,0,53,53,53,,,,,,,,,,,53,0,53,,,,,11.375,+,0,11.375,1,25,JKP,IPAD,1.1,
-,500,1,trial,0,54,54,54,,,,,,,,,,,54,0,54,,,,,11.375,-,1,11.375,1,25,JKP,IPAD,1.1,
+,575,0.5,trial,0,55,55,55,,,,,,,,,,,55,0,55,,,,,5.6875,-,2,11.375,0,25,JKP,IPAD,1.1,
-,500,0.5,trial,0,56,56,56,,,,,,,,,,,56,0,56,,,,,5.6875,-,1,11.375,1,25,JKP,IPAD,1.1,
+,575,1,trial,0,57,57,57,,,,,,,,,,,57,0,57,,,,,11.375,+,1,11.375,1,25,JKP,IPAD,1.1,
-,425,0.5,trial,0,58,58,58,,,,,,,,,,,58,0,58,,,,,5.6875,-,1,11.375,1,25,JKP,IPAD,1.1,
-,575,0.5,trial,0,59,59,59,,,,,,,,,,,59,0,59,,,,,5.6875,-,1,11.375,1,25,JKP,IPAD,1.1,
+,575,0.5,trial,0,60,60,60,,,,,,,,,,,60,0,60,,,,,5.6875,-,2,11.375,0,25,JKP,IPAD,1.1,
-,500,0.5,trial,0,61,61,61,,,,,,,,,,,61,0,61,,,,,5.6875,-,2,11.375,1,25,JKP,IPAD,1.1,
-,500,0.5,trial,0,62,62,62,,,,,,,,,,,62,0,62,,,,,5.6875,-,1,11.375,1,25,JKP,IPAD,1.1,
-,425,1,trial,0,63,63,63,,,,,,,,,,,63,0,63,,,,,11.375,-,0,11.375,1,25,JKP,IPAD,1.1,
-,500,0.5,trial,0,64,64,64,,,,,,,,,,,64,0,64,,,,,5.6875,-,0,11.375,1,25,JKP,IPAD,1.1,
+,425,0.5,trial,0,65,65,65,,,,,,,,,,,65,0,65,,,,,5.6875,+,1,11.375,1,25,JKP,IPAD,1.1,
-,500,1,trial,0,66,66,66,,,,,,,,,,,66,0,66,,,,,11.375,-,1,11.375,1,25,JKP,IPAD,1.1,
-,425,0.5,trial,0,67,67,67,,,,,,,,,,,67,0,67,,,,,5.6875,-,2,11.375,1,25,JKP,IPAD,1.1,
-,575,0.5,trial,0,68,68,68,,,,,,,,,,,68,0,68,,,,,5.6875,-,1,11.375,1,25,JKP,IPAD,1.1,
+,575,1,trial,0,69,69,69,,,,,,,,,,,69,0,69,,,,,11.375,+,0,11.375,1,25,JKP,IPAD,1.1,
-,500,1,trial,0,70,70,70,,,,,,,,,,,70,0,70,,,,,11.375,-,0,11.375,1,25,JKP,IPAD,1.1,
+,575,0.5,trial,0,71,71,71,,,,,,,,,,,71,0,71,,,,,5.6875,+,1,11.375,1,25,JKP,IPAD,1.1,
-,575,0.5,trial,0,72,72,72,,,,,,,,,,,72,0,72,,,,,5.6875,-,1,11.375,1,25,JKP,IPAD,1.1,
-,575,1,trial,0,73,73,73,,,,,,,,,,,73,0,73,,,,,11.375,-,0,11.375,1,25,JKP,IPAD,1.1,
-,500,0.5,trial,0,74,74,74,,,,,,,,,,,74,0,74,,,,,5.6875,-,0,11.375,1,25,JKP,IPAD,1.1,
+,425,1,trial,0,75,75,75,,,,,,,,,,,75,0,75,,,,,11.375,+,1,11.375,1,25,JKP,IPAD,1.1,
+,500,1,trial,0,76,76,76,,,,,,,,,,,76,0,76,,,,,11.375,+,1,11.375,1,25,JKP,IPAD,1.1,
-,425,1,trial,0,77,77,77,,,,,,,,,,,77,0,77,,,,,11.375,-,1,11.375,1,25,JKP,IPAD,1.1,
-,500,0.5,trial,0,78,78,78,,,,,,,,,,,78,0,78,,,,,5.6875,-,0,11.375,1,25,JKP,IPAD,1.1,
+,500,0.5,trial,0,79,79,79,,,,,,,,,,,79,0,79,,,,,5.6875,+,0,11.375,1,25,JKP,IPAD,1.1,
+,500,1,trial,0,80,80,80,,,,,,,,,,,80,0,80,,,,,11.375,+,1,11.375,1,25,JKP,IPAD,1.1,
+,575,0.5,trial,0,81,81,81,,,,,,,,,,,81,0,81,,,,,5.6875,+,0,11.375,1,25,JKP,IPAD,1.1,
+,575,1,trial,0,82,82,82,,,,,,,,,,,82,0,82,,,,,11.375,+,1,11.375,1,25,JKP,IPAD,1.1,
+,575,0.5,trial,0,83,83,83,,,,,,,,,,,83,0,83,,,,,5.6875,+,1,11.375,1,25,JKP,IPAD,1.1,
+,425,1,trial,0,84,84,84,,,,,,,,,,,84,0,84,,,,,11.375,+,0,11.375,1,25,JKP,IPAD,1.1,
+,500,0.5,trial,0,85,85,85,,,,,,,,,,,85,0,85,,,,,5.6875,+,1,11.375,1,25,JKP,IPAD,1.1,
+,575,1,trial,0,86,86,86,,,,,,,,,,,86,0,86,,,,,11.375,+,1,11.375,1,25,JKP,IPAD,1.1,
+,425,1,trial,0,87,87,87,,,,,,,,,,,87,0,87,,,,,11.375,+,1,11.375,1,25,JKP,IPAD,1.1,
-,575,1,trial,0,88,88,88,,,,,,,,,,,88,0,88,,,,,11.375,-,0,11.375,1,25,JKP,IPAD,1.1,
-,425,1,trial,0,89,89,89,,,,,,,,,,,89,0,89,,,,,11.375,-,0,11.375,1,25,JKP,IPAD,1.1,
+,575,0.5,trial,0,90,90,90,,,,,,,,,,,90,0,90,,,,,5.6875,+,1,11.375,1,25,JKP,IPAD,1.1,
-,425,0.5,trial,0,91,91,91,,,,,,,,,,,91,0,91,,,,,5.6875,-,1,11.375,1,25,JKP,IPAD,1.1,
+,575,1,trial,0,92,92,92,,,,,,,,,,,92,0,92,,,,,11.375,+,1,11.375,1,25,JKP,IPAD,1.1,
+,425,1,trial,0,93,93,93,,,,,,,,,,,93,0,93,,,,,11.375,+,1,11.375,1,25,JKP,IPAD,1.1,
-,500,1,trial,0,94,94,94,,,,,,,,,,,94,0,94,,,,,11.375,-,0,11.375,1,25,JKP,IPAD,1.1,
-,575,0.5,trial,0,95,95,95,,,,,,,,,,,95,0,95,,,,,5.6875,-,1,11.375,1,25,JKP,IPAD,1.1,
-,500,0.5,trial,0,96,96,96,,,,,,,,,,,96,0,96,,,,,5.6875,-,0,11.375,1,25,JKP,IPAD,1.1,
+,425,0.5,trial,0,97,97,97,,,,,,,,,,,97,0,97,,,,,5.6875,+,0,11.375,1,25,JKP,IPAD,1.1,
-,575,0.5,trial,0,98,98,98,,,,,,,,,,,98,0,98,,,,,5.6875,-,1,11.375,1,25,JKP,IPAD,1.1,
-,425,1,trial,0,99,99,99,,,,,,,,,,,99,0,99,,,,,11.375,-,1,11.375,1,25,JKP,IPAD,1.1,
-,575,1,trial,0,100,100,100,,,,,,,,,,,100,0,100,,,,,11.375,-,0,11.375,1,25,JKP,IPAD,1.1,
-,425,0.5,trial,0,101,101,101,,,,,,,,,,,101,0,101,,,,,5.6875,-,4,11.375,1,25,JKP,IPAD,1.1,
+,500,1,trial,0,102,102,102,,,,,,,,,,,102,0,102,,,,,11.375,+,1,11.375,1,25,JKP,IPAD,1.1,
+,425,0.5,trial,0,103,103,103,,,,,,,,,,,103,0,103,,,,,5.6875,+,1,11.375,1,25,JKP,IPAD,1.1,
+,500,0.5,trial,0,104,104,104,,,,,,,,,,,104,0,104,,,,,5.6875,+,1,11.375,1,25,JKP,IPAD,1.1,
+,575,0.5,trial,0,105,105,105,,,,,,,,,,,105,0,105,,,,,5.6875,+,0,11.375,1,25,JKP,IPAD,1.1,
-,425,1,trial,0,106,106,106,,,,,,,,,,,106,0,106,,,,,11.375,-,0,11.375,1,25,JKP,IPAD,1.1,
-,425,1,trial,0,107,107,107,,,,,,,,,,,107,0,107,,,,,11.375,-,0,11.375,1,25,JKP,IPAD,1.1,
-,575,1,trial,0,108,108,108,,,,,,,,,,,108,0,108,,,,,11.375,-,2,11.375,1,25,JKP,IPAD,1.1,
+,575,1,trial,0,109,109,109,,,,,,,,,,,109,0,109,,,,,11.375,+,0,11.375,1,25,JKP,IPAD,1.1,
+,425,0.5,trial,0,110,110,110,,,,,,,,,,,110,0,110,,,,,5.6875,-,2,11.375,0,25,JKP,IPAD,1.1,
-,575,1,trial,0,111,111,111,,,,,,,,,,,111,0,111,,,,,11.375,-,1,11.375,1,25,JKP,IPAD,1.1,
-,425,0.5,trial,0,112,112,112,,,,,,,,,,,112,0,112,,,,,5.6875,-,2,11.375,1,25,JKP,IPAD,1.1,
+,500,0.5,trial,0,113,113,113,,,,,,,,,,,113,0,113,,,,,5.6875,+,1,11.375,1,25,JKP,IPAD,1.1,
-,575,0.5,trial,0,114,114,114,,,,,,,,,,,114,0,114,,,,,5.6875,-,0,11.375,1,25,JKP,IPAD,1.1,
+,500,1,trial,0,115,115,115,,,,,,,,,,,115,0,115,,,,,11.375,+,1,11.375,1,25,JKP,IPAD,1.1,
-,425,0.5,trial,0,116,116,116,,,,,,,,,,,116,0,116,,,,,5.6875,-,1,11.375,1,25,JKP,IPAD,1.1,
-,500,1,trial,0,117,117,117,,,,,,,,,,,117,0,117,,,,,11.375,-,0,11.375,1,25,JKP,IPAD,1.1,
+,500,1,trial,0,118,118,118,,,,,,,,,,,118,0,118,,,,,11.375,+,0,11.375,1,25,JKP,IPAD,1.1,
+,425,1,trial,0,119,119,119,,,,,,,,,,,119,0,119,,,,,11.375,+,1,11.375,1,25,JKP,IPAD,1.1,
+,500,0.5,trial,0,120,120,120,,,,,,,,,,,120,0,120,,,,,5.6875,+,2,11.375,1,25,JKP,IPAD,1.1,
-,500,1,trial,0,121,121,121,,,,,,,,,,,121,0,121,,,,,11.375,-,0,11.375,1,25,JKP,IPAD,1.1,
+,425,0.5,trial,0,122,122,122,,,,,,,,,,,122,0,122,,,,,5.6875,+,0,11.375,1,25,JKP,IPAD,1.1,
-,500,0.5,trial,0,123,123,123,,,,,,,,,,,123,0,123,,,,,5.6875,+,1,11.375,0,25,JKP,IPAD,1.1,
-,500,0.5,trial,0,124,124,124,,,,,,,,,,,124,0,124,,,,,5.6875,-,1,11.375,1,25,JKP,IPAD,1.1,
+,575,1,trial,0,125,125,125,,,,,,,,,,,125,0,125,,,,,11.375,+,0,11.375,1,25,JKP,IPAD,1.1,
-,500,1,trial,0,126,126,126,,,,,,,,,,,126,0,126,,,,,11.375,-,1,11.375,1,25,JKP,IPAD,1.1,
-,425,1,trial,0,127,127,127,,,,,,,,,,,127,0,127,,,,,11.375,-,0,11.375,1,25,JKP,IPAD,1.1,
-,500,0.5,trial,0,128,128,128,,,,,,,,,,,128,0,128,,,,,5.6875,-,1,11.375,1,25,JKP,IPAD,1.1,
+,425,0.5,trial,0,129,129,129,,,,,,,,,,,129,0,129,,,,,5.6875,+,1,11.375,1,25,JKP,IPAD,1.1,
+,500,1,trial,0,130,130,130,,,,,,,,,,,130,0,130,,,,,11.375,+,0,11.375,1,25,JKP,IPAD,1.1,
-,575,1,trial,0,131,131,131,,,,,,,,,,,131,0,131,,,,,11.375,-,1,11.375,1,25,JKP,IPAD,1.1,
-,425,0.5,trial,0,132,132,132,,,,,,,,,,,132,0,132,,,,,5.6875,-,3,11.375,1,25,JKP,IPAD,1.1,
+,425,1,trial,0,133,133,133,,,,,,,,,,,133,0,133,,,,,11.375,+,1,11.375,1,25,JKP,IPAD,1.1,
+,575,0.5,trial,0,134,134,134,,,,,,,,,,,134,0,134,,,,,5.6875,+,0,11.375,1,25,JKP,IPAD,1.1,
-,575,1,trial,0,135,135,135,,,,,,,,,,,135,0,135,,,,,11.375,-,1,11.375,1,25,JKP,IPAD,1.1,
-,425,1,trial,0,136,136,136,,,,,,,,,,,136,0,136,,,,,11.375,-,0,11.375,1,25,JKP,IPAD,1.1,
-,500,1,trial,0,137,137,137,,,,,,,,,,,137,0,137,,,,,11.375,-,1,11.375,1,25,JKP,IPAD,1.1,
+,575,0.5,trial,0,138,138,138,,,,,,,,,,,138,0,138,,,,,5.6875,+,1,11.375,1,25,JKP,IPAD,1.1,
+,500,1,trial,0,139,139,139,,,,,,,,,,,139,0,139,,,,,11.375,+,1,11.375,1,25,JKP,IPAD,1.1,
-,575,0.5,trial,0,140,140,140,,,,,,,,,,,140,0,140,,,,,5.6875,-,0,11.375,1,25,JKP,IPAD,1.1,
+,425,1,trial,0,141,141,141,,,,,,,,,,,141,0,141,,,,,11.375,+,1,11.375,1,25,JKP,IPAD,1.1,
+,425,1,trial,0,142,142,142,,,,,,,,,,,142,0,142,,,,,11.375,+,1,11.375,1,25,JKP,IPAD,1.1,
-,575,0.5,trial,0,143,143,143,,,,,,,,,,,143,0,143,,,,,5.6875,-,1,11.375,1,25,JKP,IPAD,1.1,
+,500,0.5,trial,0,144,144,144,,,,,,,,,,,144,0,144,,,,,5.6875,+,3,11.375,1,25,JKP,IPAD,1.1,
+,425,0.5,trial,0,145,145,145,,,,,,,,,,,145,0,145,,,,,5.6875,-,3,11.375,0,25,JKP,IPAD,1.1,
+,575,0.5,trial,0,146,146,146,,,,,,,,,,,146,0,146,,,,,5.6875,+,5,11.375,1,25,JKP,IPAD,1.1,
-,575,0.5,trial,0,147,147,147,,,,,,,,,,,147,0,147,,,,,5.6875,-,0,11.375,1,25,JKP,IPAD,1.1,
-,500,0.5,trial,0,148,148,148,,,,,,,,,,,148,0,148,,,,,5.6875,-,1,11.375,1,25,JKP,IPAD,1.1,
-,575,0.5,trial,0,149,149,149,,,,,,,,,,,149,0,149,,,,,5.6875,-,1,11.375,1,25,JKP,IPAD,1.1,
-,575,1,trial,0,150,150,150,,,,,,,,,,,150,0,150,,,,,11.375,-,0,11.375,1,25,JKP,IPAD,1.1,
-,425,1,trial,0,151,151,151,,,,,,,,,,,151,0,151,,,,,11.375,-,2,11.375,1,25,JKP,IPAD,1.1,
-,500,1,trial,0,152,152,152,,,,,,,,,,,152,0,152,,,,,11.375,+,3,11.375,0,25,JKP,IPAD,1.1,
+,425,1,trial,0,153,153,153,,,,,,,,,,,153,0,153,,,,,11.375,+,0,11.375,1,25,JKP,IPAD,1.1,
+,500,0.5,trial,0,154,154,154,,,,,,,,,,,154,0,154,,,,,5.6875,+,1,11.375,1,25,JKP,IPAD,1.1,
-,425,0.5,trial,0,155,155,155,,,,,,,,,,,155,0,155,,,,,5.6875,-,2,11.375,1,25,JKP,IPAD,1.1,
+,500,1,trial,0,156,156,156,,,,,,,,,,,156,0,156,,,,,11.375,+,0,11.375,1,25,JKP,IPAD,1.1,
-,500,0.5,trial,0,157,157,157,,,,,,,,,,,157,0,157,,,,,5.6875,-,1,11.375,1,25,JKP,IPAD,1.1,
-,575,0.5,trial,0,158,158,158,,,,,,,,,,,158,0,158,,,,,5.6875,-,1,11.375,1,25,JKP,IPAD,1.1,
-,575,1,trial,0,159,159,159,,,,,,,,,,,159,0,159,,,,,11.375,-,1,11.375,1,25,JKP,IPAD,1.1,
+,575,0.5,trial,0,160,160,160,,,,,,,,,,,160,0,160,,,,,5.6875,-,0,11.375,0,25,JKP,IPAD,1.1,
+,425,1,trial,0,161,161,161,,,,,,,,,,,161,0,161,,,,,11.375,+,0,11.375,1,25,JKP,IPAD,1.1,
+,500,0.5,trial,0,162,162,162,,,,,,,,,,,162,0,162,,,,,5.6875,+,1,11.375,1,25,JKP,IPAD,1.1,
+,575,1,trial,0,163,163,163,,,,,,,,,,,163,0,163,,,,,11.375,+,1,11.375,1,25,JKP,IPAD,1.1,
-,425,1,trial,0,164,164,164,,,,,,,,,,,164,0,164,,,,,11.375,-,1,11.375,1,25,JKP,IPAD,1.1,
-,500,1,trial,0,165,165,165,,,,,,,,,,,165,0,165,,,,,11.375,-,0,11.375,1,25,JKP,IPAD,1.1,
+,575,1,trial,0,166,166,166,,,,,,,,,,,166,0,166,,,,,11.375,+,1,11.375,1,25,JKP,IPAD,1.1,
+,500,0.5,trial,0,167,167,167,,,,,,,,,,,167,0,167,,,,,5.6875,+,1,11.375,1,25,JKP,IPAD,1.1,
+,575,1,trial,0,168,168,168,,,,,,,,,,,168,0,168,,,,,11.375,+,1,11.375,1,25,JKP,IPAD,1.1,
-,425,0.5,trial,0,169,169,169,,,,,,,,,,,169,0,169,,,,,5.6875,-,1,11.375,1,25,JKP,IPAD,1.1,
-,500,0.5,trial,0,170,170,170,,,,,,,,,,,170,0,170,,,,,5.6875,-,0,11.375,1,25,JKP,IPAD,1.1,
+,425,0.5,trial,0,171,171,171,,,,,,,,,,,171,0,171,,,,,5.6875,+,0,11.375,1,25,JKP,IPAD,1.1,
+,575,0.5,trial,0,172,172,172,,,,,,,,,,,172,0,172,,,,,5.6875,+,3,11.375,1,25,JKP,IPAD,1.1,
-,425,0.5,trial,0,173,173,173,,,,,,,,,,,173,0,173,,,,,5.6875,-,2,11.375,1,25,JKP,IPAD,1.1,
+,500,0.5,trial,0,174,174,174,,,,,,,,,,,174,0,174,,,,,5.6875,+,0,11.375,1,25,JKP,IPAD,1.1,
-,425,0.5,trial,0,175,175,175,,,,,,,,,,,175,0,175,,,,,5.6875,-,1,11.375,1,25,JKP,IPAD,1.1,
+,500,1,trial,0,176,176,176,,,,,,,,,,,176,0,176,,,,,11.375,+,2,11.375,1,25,JKP,IPAD,1.1,
-,500,1,trial,0,177,177,177,,,,,,,,,,,177,0,177,,,,,11.375,-,1,11.375,1,25,JKP,IPAD,1.1,
-,575,1,trial,0,178,178,178,,,,,,,,,,,178,0,178,,,,,11.375,-,0,11.375,1,25,JKP,IPAD,1.1,
+,575,1,trial,0,179,179,179,,,,,,,,,,,179,0,179,,,,,11.375,+,1,11.375,1,25,JKP,IPAD,1.1,
+,425,0.5,trial,0,180,180,180,,,,,,,,,,,180,0,180,,,,,5.6875,+,0,11.375,1,25,JKP,IPAD,1.1,
+,500,1,trial,0,181,181,181,,,,,,,,,,,181,0,181,,,,,11.375,+,1,11.375,1,25,JKP,IPAD,1.1,
-,425,1,trial,0,182,182,182,,,,,,,,,,,182,0,182,,,,,11.375,-,1,11.375,1,25,JKP,IPAD,1.1,
+,425,0.5,trial,0,183,183,183,,,,,,,,,,,183,0,183,,,,,5.6875,+,0,11.375,1,25,JKP,IPAD,1.1,
-,425,1,trial,0,184,184,184,,,,,,,,,,,184,0,184,,,,,11.375,-,0,11.375,1,25,JKP,IPAD,1.1,
-,425,1,trial,0,185,185,185,,,,,,,,,,,185,0,185,,,,,11.375,-,0,11.375,1,25,JKP,IPAD,1.1,
-,500,1,trial,0,186,186,186,,,,,,,,,,,186,0,186,,,,,11.375,-,0,11.375,1,25,JKP,IPAD,1.1,
+,500,1,trial,0,187,187,187,,,,,,,,,,,187,0,187,,,,,11.375,+,1,11.375,1,25,JKP,IPAD,1.1,
-,575,0.5,trial,0,188,188,188,,,,,,,,,,,188,0,188,,,,,5.6875,-,1,11.375,1,25,JKP,IPAD,1.1,
+,425,1,trial,0,189,189,189,,,,,,,,,,,189,0,189,,,,,11.375,+,0,11.375,1,25,JKP,IPAD,1.1,
-,425,1,trial,0,190,190,190,,,,,,,,,,,190,0,190,,,,,11.375,-,1,11.375,1,25,JKP,IPAD,1.1,
+,575,0.5,trial,0,191,191,191,,,,,,,,,,,191,0,191,,,,,5.6875,+,0,11.375,1,25,JKP,IPAD,1.1,
+,575,0.5,trial,0,192,192,192,,,,,,,,,,,192,0,192,,,,,5.6875,+,1,11.375,1,25,JKP,IPAD,1.1,
-,425,1,trial,0,193,193,193,,,,,,,,,,,193,0,193,,,,,11.375,-,0,11.375,1,25,JKP,IPAD,1.1,
+,425,0.5,trial,0,194,194,194,,,,,,,,,,,194,0,194,,,,,5.6875,+,0,11.375,1,25,JKP,IPAD,1.1,
-,575,1,trial,0,195,195,195,,,,,,,,,,,195,0,195,,,,,11.375,-,1,11.375,1,25,JKP,IPAD,1.1,
+,500,1,trial,0,196,196,196,,,,,,,,,,,196,0,196,,,,,11.375,+,1,11.375,1,25,JKP,IPAD,1.1,
-,575,0.5,trial,0,197,197,197,,,,,,,,,,,197,0,197,,,,,5.6875,-,3,11.375,1,25,JKP,IPAD,1.1,
-,500,1,trial,0,198,198,198,,,,,,,,,,,198,0,198,,,,,11.375,-,0,11.375,1,25,JKP,IPAD,1.1,
-,500,1,trial,0,199,199,199,,,,,,,,,,,199,0,199,,,,,11.375,-,1,11.375,1,25,JKP,IPAD,1.1,
+,500,0.5,trial,0,200,200,200,,,,,,,,,,,200,0,200,,,,,5.6875,+,4,11.375,1,25,JKP,IPAD,1.1,
-,575,1,trial,0,201,201,201,,,,,,,,,,,201,0,201,,,,,11.375,-,0,11.375,1,25,JKP,IPAD,1.1,
-,425,0.5,trial,0,202,202,202,,,,,,,,,,,202,0,202,,,,,5.6875,+,4,11.375,0,25,JKP,IPAD,1.1,
-,575,0.5,trial,0,203,203,203,,,,,,,,,,,203,0,203,,,,,5.6875,-,1,11.375,1,25,JKP,IPAD,1.1,
-,500,1,trial,0,204,204,204,,,,,,,,,,,204,0,204,,,,,11.375,-,0,11.375,1,25,JKP,IPAD,1.1,
-,575,1,trial,0,205,205,205,,,,,,,,,,,205,0,205,,,,,11.375,-,1,11.375,1,25,JKP,IPAD,1.1,
+,425,0.5,trial,0,206,206,206,,,,,,,,,,,206,0,206,,,,,5.6875,+,1,11.375,1,25,JKP,IPAD,1.1,
-,575,1,trial,0,207,207,207,,,,,,,,,,,207,0,207,,,,,11.375,-,1,11.375,1,25,JKP,IPAD,1.1,
+,425,0.5,trial,0,208,208,208,,,,,,,,,,,208,0,208,,,,,5.6875,+,1,11.375,1,25,JKP,IPAD,1.1,
-,500,0.5,trial,0,209,209,209,,,,,,,,,,,209,0,209,,,,,5.6875,-,0,11.375,1,25,JKP,IPAD,1.1,
+,500,0.5,trial,0,210,210,210,,,,,,,,,,,210,0,210,,,,,5.6875,+,5,11.375,1,25,JKP,IPAD,1.1,
-,575,1,trial,0,211,211,211,,,,,,,,,,,211,0,211,,,,,11.375,-,1,11.375,1,25,JKP,IPAD,1.1,
+,575,1,trial,0,212,212,212,,,,,,,,,,,212,0,212,,,,,11.375,+,0,11.375,1,25,JKP,IPAD,1.1,
-,575,0.5,trial,0,213,213,213,,,,,,,,,,,213,0,213,,,,,5.6875,-,1,11.375,1,25,JKP,IPAD,1.1,
-,425,0.5,trial,0,214,214,214,,,,,,,,,,,214,0,214,,,,,5.6875,+,2,11.375,0,25,JKP,IPAD,1.1,
+,575,1,trial,0,215,215,215,,,,,,,,,,,215,0,215,,,,,11.375,+,2,11.375,1,25,JKP,IPAD,1.1,
+,575,1,trial,0,216,216,216,,,,,,,,,,,216,0,216,,,,,11.375,+,5,11.375,1,25,JKP,IPAD,1.1,
+,500,1,trial,0,217,217,217,,,,,,,,,,,217,0,217,,,,,11.375,+,0,11.375,1,25,JKP,IPAD,1.1,
+,575,1,trial,0,218,218,218,,,,,,,,,,,218,0,218,,,,,11.375,+,1,11.375,1,25,JKP,IPAD,1.1,
-,500,1,trial,0,219,219,219,,,,,,,,,,,219,0,219,,,,,11.375,-,0,11.375,1,25,JKP,IPAD,1.1,
+,425,1,trial,0,220,220,220,,,,,,,,,,,220,0,220,,,,,11.375,+,0,11.375,1,25,JKP,IPAD,1.1,
-,425,0.5,trial,0,221,221,221,,,,,,,,,,,221,0,221,,,,,5.6875,-,1,11.375,1,25,JKP,IPAD,1.1,
+,425,1,trial,0,222,222,222,,,,,,,,,,,222,0,222,,,,,11.375,+,0,11.375,1,25,JKP,IPAD,1.1,
+,500,0.5,trial,0,223,223,223,,,,,,,,,,,223,0,223,,,,,5.6875,-,1,11.375,0,25,JKP,IPAD,1.1,
+,500,1,trial,0,224,224,224,,,,,,,,,,,224,0,224,,,,,11.375,+,1,11.375,1,25,JKP,IPAD,1.1,
+,575,0.5,trial,0,225,225,225,,,,,,,,,,,225,0,225,,,,,5.6875,+,2,11.375,1,25,JKP,IPAD,1.1,
+,425,0.5,trial,0,226,226,226,,,,,,,,,,,226,0,226,,,,,5.6875,+,1,11.375,1,25,JKP,IPAD,1.1,
+,575,0.5,trial,0,227,227,227,,,,,,,,,,,227,0,227,,,,,5.6875,+,1,11.375,1,25,JKP,IPAD,1.1,
+,500,0.5,trial,0,228,228,228,,,,,,,,,,,228,0,228,,,,,5.6875,+,3,11.375,1,25,JKP,IPAD,1.1,
-,425,0.5,trial,0,229,229,229,,,,,,,,,,,229,0,229,,,,,5.6875,-,0,11.375,1,25,JKP,IPAD,1.1,
+,575,1,trial,0,230,230,230,,,,,,,,,,,230,0,230,,,,,11.375,+,1,11.375,1,25,JKP,IPAD,1.1,
+,425,1,trial,0,231,231,231,,,,,,,,,,,231,0,231,,,,,11.375,+,1,11.375,1,25,JKP,IPAD,1.1,
+,575,0.5,trial,0,232,232,232,,,,,,,,,,,232,0,232,,,,,5.6875,+,0,11.375,1,25,JKP,IPAD,1.1,
+,425,1,trial,0,233,233,233,,,,,,,,,,,233,0,233,,,,,11.375,+,0,11.375,1,25,JKP,IPAD,1.1,
-,425,1,trial,0,234,234,234,,,,,,,,,,,234,0,234,,,,,11.375,-,1,11.375,1,25,JKP,IPAD,1.1,
+,500,0.5,trial,0,235,235,235,,,,,,,,,,,235,0,235,,,,,5.6875,+,1,11.375,1,25,JKP,IPAD,1.1,
-,500,0.5,trial,0,236,236,236,,,,,,,,,,,236,0,236,,,,,5.6875,-,0,11.375,1,25,JKP,IPAD,1.1,
-,500,0.5,trial,0,237,237,237,,,,,,,,,,,237,0,237,,,,,5.6875,-,0,11.375,1,25,JKP,IPAD,1.1,
-,575,0.5,trial,0,238,238,238,,,,,,,,,,,238,0,238,,,,,5.6875,-,1,11.375,1,25,JKP,IPAD,1.1,
+,425,0.5,trial,0,239,239,239,,,,,,,,,,,239,0,239,,,,,5.6875,+,0,11.375,1,25,JKP,IPAD,1.1,
-,500,0.5,trial,0,240,240,240,,,,,,,,,,,240,0,240,,,,,5.6875,-,1,11.375,1,25,JKP,IPAD,1.1,
-,425,0.5,trial,0,241,241,241,,,,,,,,,,,241,0,241,,,,,5.6875,+,1,11.375,0,25,JKP,IPAD,1.1,
-,500,0.5,trial,0,242,242,242,,,,,,,,,,,242,0,242,,,,,5.6875,-,1,11.375,1,25,JKP,IPAD,1.1,
+,500,1,trial,0,243,243,243,,,,,,,,,,,243,0,243,,,,,11.375,+,0,11.375,1,25,JKP,IPAD,1.1,
