shift,interval,difficulty,event,.thisRepN,.thisTrialN,.thisN,.thisIndex,.label,.startVal,.nReversals,.stepSizes,.nUp,.nDown,.minVal,.maxVal,.stepType,.shift,.thisIndex,.thisRepN,.thisN,.direction,.stepSize,.intensity,.response,shift_size,response,rt,jnd,correct,subject,experimenter,experiment,version,
,,,,0,-1,-1,0,l-,25,8,"[8, 8, 4, 4, 2, 2, 1, 1]",1,2,0,100,lin,-,0,0,-1,start,8,25,False,,,,,,5,JKP,IPAD,1.0,
,,,,0,-1,-1,0,s-,1,8,"[8, 8, 4, 4, 2, 2, 1, 1]",1,2,0,100,lin,-,0,0,-1,start,8,1,False,,,,,,5,JKP,IPAD,1.0,
,,,,0,-1,-1,0,l+,25,8,"[8, 8, 4, 4, 2, 2, 1, 1]",1,2,0,100,lin,+,0,0,-1,start,8,25,True,,,,,,5,JKP,IPAD,1.0,
,,,,0,-1,-1,0,s+,1,8,"[8, 8, 4, 4, 2, 2, 1, 1]",1,2,0,100,lin,+,0,0,-1,start,8,1,False,,,,,,5,JKP,IPAD,1.0,
,,,,0,-1,-1,0,l-,25,8,"[8, 8, 4, 4, 2, 2, 1, 1]",1,2,0,100,lin,-,0,0,-1,up,8,33,True,,,,,,5,JKP,IPAD,1.0,
,,,,0,-1,-1,0,l+,25,8,"[8, 8, 4, 4, 2, 2, 1, 1]",1,2,0,100,lin,+,0,0,-1,down,8,17,False,,,,,,5,JKP,IPAD,1.0,
,,,,0,-1,-1,0,s-,1,8,"[8, 8, 4, 4, 2, 2, 1, 1]",1,2,0,100,lin,-,0,0,-1,up,8,9,True,,,,,,5,JKP,IPAD,1.0,
,,,,0,-1,-1,0,s+,1,8,"[8, 8, 4, 4, 2, 2, 1, 1]",1,2,0,100,lin,+,0,0,-1,up,8,9,False,,,,,,5,JKP,IPAD,1.0,
,,,,0,-1,-1,0,l+,25,8,"[8, 8, 4, 4, 2, 2, 1, 1]",1,2,0,100,lin,+,0,0,-1,up,8,25,True,,,,,,5,JKP,IPAD,1.0,
,,,,0,-1,-1,0,s-,1,8,"[8, 8, 4, 4, 2, 2, 1, 1]",1,2,0,100,lin,-,0,0,-1,down,8,1,False,,,,,,5,JKP,IPAD,1.0,
,,,,0,-1,-1,0,l-,25,8,"[8, 8, 4, 4, 2, 2, 1, 1]",1,2,0,100,lin,-,0,0,-1,down,8,25,True,,,,,,5,JKP,IPAD,1.0,
,,,,0,-1,-1,0,s+,1,8,"[8, 8, 4, 4, 2, 2, 1, 1]",1,2,0,100,lin,+,0,0,-1,up,8,17,False,,,,,,5,JKP,IPAD,1.0,
,,,,0,-1,-1,0,l+,25,8,"[8, 8, 4, 4, 2, 2, 1, 1]",1,2,0,100,lin,+,0,0,-1,up,8,25,False,,,,,,5,JKP,IPAD,1.0,
,,,,0,-1,-1,0,s+,1,8,"[8, 8, 4, 4, 2, 2, 1, 1]",1,2,0,100,lin,+,0,0,-1,up,8,25,False,,,,,,5,JKP,IPAD,1.0,
,,,,0,-1,-1,0,l-,25,8,"[8, 8, 4, 4, 2, 2, 1, 1]",1,2,0,100,lin,-,0,0,-1,down,8,25,True,,,,,,5,JKP,IPAD,1.0,
,,,,0,-1,-1,0,s-,1,8,"[8, 8, 4, 4, 2, 2, 1, 1]",1,2,0,100,lin,-,0,0,-1,up,4,5,True,,,,,,5,JKP,IPAD,1.0,
,,,,0,-1,-1,0,l+,25,8,"[8, 8, 4, 4, 2, 2, 1, 1]",1,2,0,100,lin,+,0,0,-1,up,8,33,True,,,,,,5,JKP,IPAD,1.0,
,,,,0,-1,-1,0,s-,1,8,"[8, 8, 4, 4, 2, 2, 1, 1]",1,2,0,100,lin,-,0,0,-1,up,4,5,True,,,,,,5,JKP,IPAD,1.0,
,,,,0,-1,-1,0,s+,1,8,"[8, 8, 4, 4, 2, 2, 1, 1]",1,2,0,100,lin,+,0,0,-1,up,8,33,True,,,,,,5,JKP,IPAD,1.0,
,,,,0,-1,-1,0,l-,25,8,"[8, 8, 4, 4, 2, 2, 1, 1]",1,2,0,100,lin,-,0,0,-1,down,8,17,True,,,,,,5,JKP,IPAD,1.0,
,,,,0,-1,-1,0,s+,1,8,"[8, 8, 4, 4, 2, 2, 1, 1]",1,2,0,100,lin,+,0,0,-1,down,8,25,True,,,,,,5,JKP,IPAD,1.0,
,,,,0,-1,-1,0,l-,25,8,"[8, 8, 4, 4, 2, 2, 1, 1]",1,2,0,100,lin,-,0,0,-1,down,8,17,True,,,,,,5,JKP,IPAD,1.0,
,,,,0,-1,-1,0,s-,1,8,"[8, 8, 4, 4, 2, 2, 1, 1]",1,2,0,100,lin,-,0,0,-1,down,4,1,True,,,,,,5,JKP,IPAD,1.0,
,,,,0,-1,-1,0,l+,25,8,"[8, 8, 4, 4, 2, 2, 1, 1]",1,2,0,100,lin,+,0,0,-1,up,8,33,True,,,,,,5,JKP,IPAD,1.0,
,,,,0,-1,-1,0,l-,25,8,"[8, 8, 4, 4, 2, 2, 1, 1]",1,2,0,100,lin,-,0,0,-1,down,8,9,True,,,,,,5,JKP,IPAD,1.0,
,,,,0,-1,-1,0,l+,25,8,"[8, 8, 4, 4, 2, 2, 1, 1]",1,2,0,100,lin,+,0,0,-1,down,4,29,True,,,,,,5,JKP,IPAD,1.0,
,,,,0,-1,-1,0,s+,1,8,"[8, 8, 4, 4, 2, 2, 1, 1]",1,2,0,100,lin,+,0,0,-1,down,8,25,True,,,,,,5,JKP,IPAD,1.0,
,,,,0,-1,-1,0,s-,1,8,"[8, 8, 4, 4, 2, 2, 1, 1]",1,2,0,100,lin,-,0,0,-1,down,4,1,True,,,,,,5,JKP,IPAD,1.0,
,,,,0,-1,-1,0,s-,1,8,"[8, 8, 4, 4, 2, 2, 1, 1]",1,2,0,100,lin,-,0,0,-1,down,4,0,False,,,,,,5,JKP,IPAD,1.0,
,,,,0,-1,-1,0,s+,1,8,"[8, 8, 4, 4, 2, 2, 1, 1]",1,2,0,100,lin,+,0,0,-1,down,8,17,False,,,,,,5,JKP,IPAD,1.0,
,,,,0,-1,-1,0,l+,25,8,"[8, 8, 4, 4, 2, 2, 1, 1]",1,2,0,100,lin,+,0,0,-1,down,4,29,True,,,,,,5,JKP,IPAD,1.0,
,,,,0,-1,-1,0,l-,25,8,"[8, 8, 4, 4, 2, 2, 1, 1]",1,2,0,100,lin,-,0,0,-1,down,8,9,True,,,,,,5,JKP,IPAD,1.0,
,,,,0,-1,-1,0,l-,25,8,"[8, 8, 4, 4, 2, 2, 1, 1]",1,2,0,100,lin,-,0,0,-1,down,8,1,True,,,,,,5,JKP,IPAD,1.0,
,,,,0,-1,-1,0,s+,1,8,"[8, 8, 4, 4, 2, 2, 1, 1]",1,2,0,100,lin,+,0,0,-1,up,4,21,True,,,,,,5,JKP,IPAD,1.0,
,,,,0,-1,-1,0,s-,1,8,"[8, 8, 4, 4, 2, 2, 1, 1]",1,2,0,100,lin,-,0,0,-1,up,2,2,True,,,,,,5,JKP,IPAD,1.0,
,,,,0,-1,-1,0,l+,25,8,"[8, 8, 4, 4, 2, 2, 1, 1]",1,2,0,100,lin,+,0,0,-1,down,4,25,True,,,,,,5,JKP,IPAD,1.0,
,,,,0,-1,-1,0,s+,1,8,"[8, 8, 4, 4, 2, 2, 1, 1]",1,2,0,100,lin,+,0,0,-1,up,4,21,True,,,,,,5,JKP,IPAD,1.0,
,,,,0,-1,-1,0,l+,25,8,"[8, 8, 4, 4, 2, 2, 1, 1]",1,2,0,100,lin,+,0,0,-1,down,4,25,True,,,,,,5,JKP,IPAD,1.0,
,,,,0,-1,-1,0,l-,25,8,"[8, 8, 4, 4, 2, 2, 1, 1]",1,2,0,100,lin,-,0,0,-1,down,8,1,True,,,,,,5,JKP,IPAD,1.0,
,,,,0,-1,-1,0,s-,1,8,"[8, 8, 4, 4, 2, 2, 1, 1]",1,2,0,100,lin,-,0,0,-1,up,2,2,True,,,,,,5,JKP,IPAD,1.0,
,,,,0,-1,-1,0,s-,1,8,"[8, 8, 4, 4, 2, 2, 1, 1]",1,2,0,100,lin,-,0,0,-1,down,2,0,False,,,,,,5,JKP,IPAD,1.0,
,,,,0,-1,-1,0,l-,25,8,"[8, 8, 4, 4, 2, 2, 1, 1]",1,2,0,100,lin,-,0,0,-1,down,8,0,False,,,,,,5,JKP,IPAD,1.0,
,,,,0,-1,-1,0,l+,25,8,"[8, 8, 4, 4, 2, 2, 1, 1]",1,2,0,100,lin,+,0,0,-1,down,4,21,True,,,,,,5,JKP,IPAD,1.0,
,,,,0,-1,-1,0,s+,1,8,"[8, 8, 4, 4, 2, 2, 1, 1]",1,2,0,100,lin,+,0,0,-1,down,4,17,True,,,,,,5,JKP,IPAD,1.0,
,,,,0,-1,-1,0,l+,25,8,"[8, 8, 4, 4, 2, 2, 1, 1]",1,2,0,100,lin,+,0,0,-1,down,4,21,False,,,,,,5,JKP,IPAD,1.0,
,,,,0,-1,-1,0,s-,1,8,"[8, 8, 4, 4, 2, 2, 1, 1]",1,2,0,100,lin,-,0,0,-1,up,1,1,True,,,,,,5,JKP,IPAD,1.0,
,,,,0,-1,-1,0,s+,1,8,"[8, 8, 4, 4, 2, 2, 1, 1]",1,2,0,100,lin,+,0,0,-1,down,4,17,True,,,,,,5,JKP,IPAD,1.0,
,,,,0,-1,-1,0,l-,25,8,"[8, 8, 4, 4, 2, 2, 1, 1]",1,2,0,100,lin,-,0,0,-1,up,4,4,True,,,,,,5,JKP,IPAD,1.0,
,,,,0,-1,-1,0,l+,25,8,"[8, 8, 4, 4, 2, 2, 1, 1]",1,2,0,100,lin,+,0,0,-1,up,4,25,True,,,,,,5,JKP,IPAD,1.0,
,,,,0,-1,-1,0,l-,25,8,"[8, 8, 4, 4, 2, 2, 1, 1]",1,2,0,100,lin,-,0,0,-1,up,4,4,True,,,,,,5,JKP,IPAD,1.0,
,,,,0,-1,-1,0,s+,1,8,"[8, 8, 4, 4, 2, 2, 1, 1]",1,2,0,100,lin,+,0,0,-1,down,4,13,False,,,,,,5,JKP,IPAD,1.0,
,,,,0,-1,-1,0,s-,1,8,"[8, 8, 4, 4, 2, 2, 1, 1]",1,2,0,100,lin,-,0,0,-1,up,1,1,True,,,,,,5,JKP,IPAD,1.0,
,,,,0,-1,-1,0,s-,1,8,"[8, 8, 4, 4, 2, 2, 1, 1]",1,2,0,100,lin,-,0,0,-1,down,1,0,False,,,,,,5,JKP,IPAD,1.0,
,,,,0,-1,-1,0,l-,25,8,"[8, 8, 4, 4, 2, 2, 1, 1]",1,2,0,100,lin,-,0,0,-1,down,4,0,False,,,,,,5,JKP,IPAD,1.0,
,,,,0,-1,-1,0,s+,1,8,"[8, 8, 4, 4, 2, 2, 1, 1]",1,2,0,100,lin,+,0,0,-1,up,2,15,True,,,,,,5,JKP,IPAD,1.0,
,,,,0,-1,-1,0,l+,25,8,"[8, 8, 4, 4, 2, 2, 1, 1]",1,2,0,100,lin,+,0,0,-1,up,4,25,True,,,,,,5,JKP,IPAD,1.0,
,,,,0,-1,-1,0,l-,25,8,"[8, 8, 4, 4, 2, 2, 1, 1]",1,2,0,100,lin,-,0,0,-1,up,2,2,True,,,,,,5,JKP,IPAD,1.0,
,,,,0,-1,-1,0,l+,25,8,"[8, 8, 4, 4, 2, 2, 1, 1]",1,2,0,100,lin,+,0,0,-1,down,2,23,True,,,,,,5,JKP,IPAD,1.0,
,,,,0,-1,-1,0,s+,1,8,"[8, 8, 4, 4, 2, 2, 1, 1]",1,2,0,100,lin,+,0,0,-1,up,2,15,True,,,,,,5,JKP,IPAD,1.0,
,,,,0,-1,-1,0,s+,1,8,"[8, 8, 4, 4, 2, 2, 1, 1]",1,2,0,100,lin,+,0,0,-1,down,2,13,False,,,,,,5,JKP,IPAD,1.0,
,,,,0,-1,-1,0,l-,25,8,"[8, 8, 4, 4, 2, 2, 1, 1]",1,2,0,100,lin,-,0,0,-1,up,2,2,True,,,,,,5,JKP,IPAD,1.0,
,,,,0,-1,-1,0,l+,25,8,"[8, 8, 4, 4, 2, 2, 1, 1]",1,2,0,100,lin,+,0,0,-1,down,2,23,True,,,,,,5,JKP,IPAD,1.0,
,,,,0,-1,-1,0,s+,1,8,"[8, 8, 4, 4, 2, 2, 1, 1]",1,2,0,100,lin,+,0,0,-1,up,1,14,False,,,,,,5,JKP,IPAD,1.0,
,,,,0,-1,-1,0,l-,25,8,"[8, 8, 4, 4, 2, 2, 1, 1]",1,2,0,100,lin,-,0,0,-1,down,2,0,False,,,,,,5,JKP,IPAD,1.0,
,,,,0,-1,-1,0,l+,25,8,"[8, 8, 4, 4, 2, 2, 1, 1]",1,2,0,100,lin,+,0,0,-1,down,2,21,True,,,,,,5,JKP,IPAD,1.0,
,,,,0,-1,-1,0,l+,25,8,"[8, 8, 4, 4, 2, 2, 1, 1]",1,2,0,100,lin,+,0,0,-1,down,2,21,True,,,,,,5,JKP,IPAD,1.0,
,,,,0,-1,-1,0,l-,25,8,"[8, 8, 4, 4, 2, 2, 1, 1]",1,2,0,100,lin,-,0,0,-1,up,1,1,True,,,,,,5,JKP,IPAD,1.0,
,,,,0,-1,-1,0,s+,1,8,"[8, 8, 4, 4, 2, 2, 1, 1]",1,2,0,100,lin,+,0,0,-1,up,1,15,False,,,,,,5,JKP,IPAD,1.0,
,,,,0,-1,-1,0,l-,25,8,"[8, 8, 4, 4, 2, 2, 1, 1]",1,2,0,100,lin,-,0,0,-1,up,1,1,True,,,,,,5,JKP,IPAD,1.0,
,,,,0,-1,-1,0,s+,1,8,"[8, 8, 4, 4, 2, 2, 1, 1]",1,2,0,100,lin,+,0,0,-1,up,1,16,False,,,,,,5,JKP,IPAD,1.0,
,,,,0,-1,-1,0,l+,25,8,"[8, 8, 4, 4, 2, 2, 1, 1]",1,2,0,100,lin,+,0,0,-1,down,2,19,False,,,,,,5,JKP,IPAD,1.0,
,,,,0,-1,-1,0,s+,1,8,"[8, 8, 4, 4, 2, 2, 1, 1]",1,2,0,100,lin,+,0,0,-1,up,1,17,False,,,,,,5,JKP,IPAD,1.0,
,,,,0,-1,-1,0,l+,25,8,"[8, 8, 4, 4, 2, 2, 1, 1]",1,2,0,100,lin,+,0,0,-1,up,2,21,True,,,,,,5,JKP,IPAD,1.0,
,,,,0,-1,-1,0,l-,25,8,"[8, 8, 4, 4, 2, 2, 1, 1]",1,2,0,100,lin,-,0,0,-1,down,1,0,False,,,,,,5,JKP,IPAD,1.0,
,,,,0,-1,-1,0,s+,1,8,"[8, 8, 4, 4, 2, 2, 1, 1]",1,2,0,100,lin,+,0,0,-1,up,1,18,True,,,,,,5,JKP,IPAD,1.0,
,,,,0,-1,-1,0,l+,25,8,"[8, 8, 4, 4, 2, 2, 1, 1]",1,2,0,100,lin,+,0,0,-1,up,2,21,True,,,,,,5,JKP,IPAD,1.0,
,,,,0,-1,-1,0,l+,25,8,"[8, 8, 4, 4, 2, 2, 1, 1]",1,2,0,100,lin,+,0,0,-1,down,1,20,True,,,,,,5,JKP,IPAD,1.0,
,,,,0,-1,-1,0,s+,1,8,"[8, 8, 4, 4, 2, 2, 1, 1]",1,2,0,100,lin,+,0,0,-1,up,1,18,True,,,,,,5,JKP,IPAD,1.0,
,,,,0,-1,-1,0,l+,25,8,"[8, 8, 4, 4, 2, 2, 1, 1]",1,2,0,100,lin,+,0,0,-1,down,1,20,True,,,,,,5,JKP,IPAD,1.0,
,,,,0,-1,-1,0,s+,1,8,"[8, 8, 4, 4, 2, 2, 1, 1]",1,2,0,100,lin,+,0,0,-1,down,1,17,True,,,,,,5,JKP,IPAD,1.0,
,,,,0,-1,-1,0,l+,25,8,"[8, 8, 4, 4, 2, 2, 1, 1]",1,2,0,100,lin,+,0,0,-1,down,1,19,True,,,,,,5,JKP,IPAD,1.0,
,,,,0,-1,-1,0,s+,1,8,"[8, 8, 4, 4, 2, 2, 1, 1]",1,2,0,100,lin,+,0,0,-1,down,1,17,False,,,,,,5,JKP,IPAD,1.0,
,,,,0,-1,-1,0,l+,25,8,"[8, 8, 4, 4, 2, 2, 1, 1]",1,2,0,100,lin,+,0,0,-1,down,1,19,True,,,,,,5,JKP,IPAD,1.0,
,,,,0,-1,-1,0,l+,25,8,"[8, 8, 4, 4, 2, 2, 1, 1]",1,2,0,100,lin,+,0,0,-1,down,1,18,True,,,,,,5,JKP,IPAD,1.0,
,,,,0,-1,-1,0,l+,25,8,"[8, 8, 4, 4, 2, 2, 1, 1]",1,2,0,100,lin,+,0,0,-1,down,1,18,True,,,,,,5,JKP,IPAD,1.0,
,,,,0,-1,-1,0,l+,25,8,"[8, 8, 4, 4, 2, 2, 1, 1]",1,2,0,100,lin,+,0,0,-1,down,1,17,True,,,,,,5,JKP,IPAD,1.0,
,,,,0,-1,-1,0,l+,25,8,"[8, 8, 4, 4, 2, 2, 1, 1]",1,2,0,100,lin,+,0,0,-1,down,1,17,True,,,,,,5,JKP,IPAD,1.0,
,,,,0,-1,-1,0,l+,25,8,"[8, 8, 4, 4, 2, 2, 1, 1]",1,2,0,100,lin,+,0,0,-1,down,1,16,True,,,,,,5,JKP,IPAD,1.0,
,,,,0,-1,-1,0,l+,25,8,"[8, 8, 4, 4, 2, 2, 1, 1]",1,2,0,100,lin,+,0,0,-1,down,1,16,False,,,,,,5,JKP,IPAD,1.0,
,,,,0,-1,-1,0,l+,25,8,"[8, 8, 4, 4, 2, 2, 1, 1]",1,2,0,100,lin,+,0,0,-1,up,1,17,True,,,,,,5,JKP,IPAD,1.0,
,,,,0,-1,-1,0,l+,25,8,"[8, 8, 4, 4, 2, 2, 1, 1]",1,2,0,100,lin,+,0,0,-1,up,1,17,True,,,,,,5,JKP,IPAD,1.0,
-,500,4,practice,0,0,0,0,,,,,,,,,,,0,0,0,,,,,35.5,-,1,8.875,1,5,JKP,IPAD,1.0,
-,500,4,practice,0,1,1,1,,,,,,,,,,,1,0,1,,,,,35.5,-,1,8.875,1,5,JKP,IPAD,1.0,
+,500,4,practice,0,2,2,2,,,,,,,,,,,2,0,2,,,,,35.5,+,1,8.875,1,5,JKP,IPAD,1.0,
+,500,4,practice,0,3,3,3,,,,,,,,,,,3,0,3,,,,,35.5,+,0,8.875,1,5,JKP,IPAD,1.0,
-,500,1.5,trial,0,4,4,4,,,,,,,,,,,4,0,4,,,,,13.3125,-,1,8.875,1,5,JKP,IPAD,1.0,
-,575,1,trial,0,5,5,5,,,,,,,,,,,5,0,5,,,,,8.875,-,0,8.875,1,5,JKP,IPAD,1.0,
-,500,1.5,trial,0,6,6,6,,,,,,,,,,,6,0,6,,,,,13.3125,-,1,8.875,1,5,JKP,IPAD,1.0,
+,500,1.5,trial,0,7,7,7,,,,,,,,,,,7,0,7,,,,,13.3125,+,1,8.875,1,5,JKP,IPAD,1.0,
-,575,1,trial,0,8,8,8,,,,,,,,,,,8,0,8,,,,,8.875,-,1,8.875,1,5,JKP,IPAD,1.0,
-,575,1.5,trial,0,9,9,9,,,,,,,,,,,9,0,9,,,,,13.3125,-,1,8.875,1,5,JKP,IPAD,1.0,
-,500,1.5,trial,0,10,10,10,,,,,,,,,,,10,0,10,,,,,13.3125,-,1,8.875,1,5,JKP,IPAD,1.0,
-,425,1,trial,0,11,11,11,,,,,,,,,,,11,0,11,,,,,8.875,-,0,8.875,1,5,JKP,IPAD,1.0,
+,425,1,trial,0,12,12,12,,,,,,,,,,,12,0,12,,,,,8.875,+,3,8.875,1,5,JKP,IPAD,1.0,
+,500,1.5,trial,0,13,13,13,,,,,,,,,,,13,0,13,,,,,13.3125,+,1,8.875,1,5,JKP,IPAD,1.0,
-,575,1,trial,0,14,14,14,,,,,,,,,,,14,0,14,,,,,8.875,-,0,8.875,1,5,JKP,IPAD,1.0,
+,425,1,trial,0,15,15,15,,,,,,,,,,,15,0,15,,,,,8.875,+,1,8.875,1,5,JKP,IPAD,1.0,
+,575,1,trial,0,16,16,16,,,,,,,,,,,16,0,16,,,,,8.875,+,1,8.875,1,5,JKP,IPAD,1.0,
+,500,1,trial,0,17,17,17,,,,,,,,,,,17,0,17,,,,,8.875,+,1,8.875,1,5,JKP,IPAD,1.0,
-,425,1.5,trial,0,18,18,18,,,,,,,,,,,18,0,18,,,,,13.3125,-,1,8.875,1,5,JKP,IPAD,1.0,
-,500,1,trial,0,19,19,19,,,,,,,,,,,19,0,19,,,,,8.875,-,2,8.875,1,5,JKP,IPAD,1.0,
+,425,1.5,trial,0,20,20,20,,,,,,,,,,,20,0,20,,,,,13.3125,-,2,8.875,0,5,JKP,IPAD,1.0,
+,575,1.5,trial,0,21,21,21,,,,,,,,,,,21,0,21,,,,,13.3125,-,4,8.875,0,5,JKP,IPAD,1.0,
+,575,1.5,trial,0,22,22,22,,,,,,,,,,,22,0,22,,,,,13.3125,-,4,8.875,0,5,JKP,IPAD,1.0,
-,425,1,trial,0,23,23,23,,,,,,,,,,,23,0,23,,,,,8.875,-,2,8.875,1,5,JKP,IPAD,1.0,
-,575,1.5,trial,0,24,24,24,,,,,,,,,,,24,0,24,,,,,13.3125,-,1,8.875,1,5,JKP,IPAD,1.0,
+,575,1,trial,0,25,25,25,,,,,,,,,,,25,0,25,,,,,8.875,-,4,8.875,0,5,JKP,IPAD,1.0,
+,500,1,trial,0,26,26,26,,,,,,,,,,,26,0,26,,,,,8.875,-,2,8.875,0,5,JKP,IPAD,1.0,
+,500,1,trial,0,27,27,27,,,,,,,,,,,27,0,27,,,,,8.875,+,1,8.875,1,5,JKP,IPAD,1.0,
+,575,1.5,trial,0,28,28,28,,,,,,,,,,,28,0,28,,,,,13.3125,-,1,8.875,0,5,JKP,IPAD,1.0,
-,500,1.5,trial,0,29,29,29,,,,,,,,,,,29,0,29,,,,,13.3125,-,1,8.875,1,5,JKP,IPAD,1.0,
+,425,1.5,trial,0,30,30,30,,,,,,,,,,,30,0,30,,,,,13.3125,-,1,8.875,0,5,JKP,IPAD,1.0,
+,500,1,trial,0,31,31,31,,,,,,,,,,,31,0,31,,,,,8.875,+,2,8.875,1,5,JKP,IPAD,1.0,
+,575,1.5,trial,0,32,32,32,,,,,,,,,,,32,0,32,,,,,13.3125,+,1,8.875,1,5,JKP,IPAD,1.0,
+,425,1,trial,0,33,33,33,,,,,,,,,,,33,0,33,,,,,8.875,-,3,8.875,0,5,JKP,IPAD,1.0,
-,425,1.5,trial,0,34,34,34,,,,,,,,,,,34,0,34,,,,,13.3125,-,0,8.875,1,5,JKP,IPAD,1.0,
+,575,1,trial,0,35,35,35,,,,,,,,,,,35,0,35,,,,,8.875,-,1,8.875,0,5,JKP,IPAD,1.0,
-,425,1.5,trial,0,36,36,36,,,,,,,,,,,36,0,36,,,,,13.3125,-,2,8.875,1,5,JKP,IPAD,1.0,
+,500,1.5,trial,0,37,37,37,,,,,,,,,,,37,0,37,,,,,13.3125,-,2,8.875,0,5,JKP,IPAD,1.0,
+,425,1.5,trial,0,38,38,38,,,,,,,,,,,38,0,38,,,,,13.3125,+,0,8.875,1,5,JKP,IPAD,1.0,
-,575,1.5,trial,0,39,39,39,,,,,,,,,,,39,0,39,,,,,13.3125,-,1,8.875,1,5,JKP,IPAD,1.0,
-,575,1.5,trial,0,40,40,40,,,,,,,,,,,40,0,40,,,,,13.3125,-,1,8.875,1,5,JKP,IPAD,1.0,
+,425,1.5,trial,0,41,41,41,,,,,,,,,,,41,0,41,,,,,13.3125,+,2,8.875,1,5,JKP,IPAD,1.0,
+,500,1,trial,0,42,42,42,,,,,,,,,,,42,0,42,,,,,8.875,+,1,8.875,1,5,JKP,IPAD,1.0,
+,575,1,trial,0,43,43,43,,,,,,,,,,,43,0,43,,,,,8.875,-,1,8.875,0,5,JKP,IPAD,1.0,
+,575,1.5,trial,0,44,44,44,,,,,,,,,,,44,0,44,,,,,13.3125,-,2,8.875,0,5,JKP,IPAD,1.0,
-,500,1.5,trial,0,45,45,45,,,,,,,,,,,45,0,45,,,,,13.3125,-,2,8.875,1,5,JKP,IPAD,1.0,
-,425,1,trial,0,46,46,46,,,,,,,,,,,46,0,46,,,,,8.875,-,1,8.875,1,5,JKP,IPAD,1.0,
+,425,1.5,trial,0,47,47,47,,,,,,,,,,,47,0,47,,,,,13.3125,-,2,8.875,0,5,JKP,IPAD,1.0,
+,500,1.5,trial,0,48,48,48,,,,,,,,,,,48,0,48,,,,,13.3125,+,3,8.875,1,5,JKP,IPAD,1.0,
-,500,1,trial,0,49,49,49,,,,,,,,,,,49,0,49,,,,,8.875,-,0,8.875,1,5,JKP,IPAD,1.0,
-,425,1,trial,0,50,50,50,,,,,,,,,,,50,0,50,,,,,8.875,-,0,8.875,1,5,JKP,IPAD,1.0,
-,500,1,trial,0,51,51,51,,,,,,,,,,,51,0,51,,,,,8.875,-,1,8.875,1,5,JKP,IPAD,1.0,
+,575,1,trial,0,52,52,52,,,,,,,,,,,52,0,52,,,,,8.875,-,1,8.875,0,5,JKP,IPAD,1.0,
-,425,1.5,trial,0,53,53,53,,,,,,,,,,,53,0,53,,,,,13.3125,-,1,8.875,1,5,JKP,IPAD,1.0,
-,500,1,trial,0,54,54,54,,,,,,,,,,,54,0,54,,,,,8.875,-,1,8.875,1,5,JKP,IPAD,1.0,
+,425,1,trial,0,55,55,55,,,,,,,,,,,55,0,55,,,,,8.875,-,1,8.875,0,5,JKP,IPAD,1.0,
-,575,1.5,trial,0,56,56,56,,,,,,,,,,,56,0,56,,,,,13.3125,-,2,8.875,1,5,JKP,IPAD,1.0,
-,500,1,trial,0,57,57,57,,,,,,,,,,,57,0,57,,,,,8.875,-,0,8.875,1,5,JKP,IPAD,1.0,
-,425,1.5,trial,0,58,58,58,,,,,,,,,,,58,0,58,,,,,13.3125,-,1,8.875,1,5,JKP,IPAD,1.0,
-,425,1,trial,0,59,59,59,,,,,,,,,,,59,0,59,,,,,8.875,-,1,8.875,1,5,JKP,IPAD,1.0,
-,575,1,trial,0,60,60,60,,,,,,,,,,,60,0,60,,,,,8.875,-,1,8.875,1,5,JKP,IPAD,1.0,
+,500,1.5,trial,0,61,61,61,,,,,,,,,,,61,0,61,,,,,13.3125,+,1,8.875,1,5,JKP,IPAD,1.0,
+,425,1,trial,0,62,62,62,,,,,,,,,,,62,0,62,,,,,8.875,+,4,8.875,1,5,JKP,IPAD,1.0,
-,575,1,trial,0,63,63,63,,,,,,,,,,,63,0,63,,,,,8.875,-,0,8.875,1,5,JKP,IPAD,1.0,
-,425,1,trial,0,64,64,64,,,,,,,,,,,64,0,64,,,,,8.875,-,1,8.875,1,5,JKP,IPAD,1.0,
+,425,1,trial,0,65,65,65,,,,,,,,,,,65,0,65,,,,,8.875,-,1,8.875,0,5,JKP,IPAD,1.0,
-,500,1,trial,0,66,66,66,,,,,,,,,,,66,0,66,,,,,8.875,-,0,8.875,1,5,JKP,IPAD,1.0,
+,500,1,trial,0,67,67,67,,,,,,,,,,,67,0,67,,,,,8.875,+,2,8.875,1,5,JKP,IPAD,1.0,
+,500,1.5,trial,0,68,68,68,,,,,,,,,,,68,0,68,,,,,13.3125,+,3,8.875,1,5,JKP,IPAD,1.0,
-,575,1,trial,0,69,69,69,,,,,,,,,,,69,0,69,,,,,8.875,-,1,8.875,1,5,JKP,IPAD,1.0,
-,575,1.5,trial,0,70,70,70,,,,,,,,,,,70,0,70,,,,,13.3125,-,1,8.875,1,5,JKP,IPAD,1.0,
-,575,1,trial,0,71,71,71,,,,,,,,,,,71,0,71,,,,,8.875,-,0,8.875,1,5,JKP,IPAD,1.0,
-,425,1.5,trial,0,72,72,72,,,,,,,,,,,72,0,72,,,,,13.3125,-,1,8.875,1,5,JKP,IPAD,1.0,
-,500,1.5,trial,0,73,73,73,,,,,,,,,,,73,0,73,,,,,13.3125,-,1,8.875,1,5,JKP,IPAD,1.0,
-,500,1,trial,0,74,74,74,,,,,,,,,,,74,0,74,,,,,8.875,-,3,8.875,1,5,JKP,IPAD,1.0,
-,500,1,trial,0,75,75,75,,,,,,,,,,,75,0,75,,,,,8.875,-,1,8.875,1,5,JKP,IPAD,1.0,
-,425,1.5,trial,0,76,76,76,,,,,,,,,,,76,0,76,,,,,13.3125,-,1,8.875,1,5,JKP,IPAD,1.0,
+,425,1,trial,0,77,77,77,,,,,,,,,,,77,0,77,,,,,8.875,+,2,8.875,1,5,JKP,IPAD,1.0,
-,425,1.5,trial,0,78,78,78,,,,,,,,,,,78,0,78,,,,,13.3125,-,2,8.875,1,5,JKP,IPAD,1.0,
+,425,1.5,trial,0,79,79,79,,,,,,,,,,,79,0,79,,,,,13.3125,-,2,8.875,0,5,JKP,IPAD,1.0,
-,575,1,trial,0,80,80,80,,,,,,,,,,,80,0,80,,,,,8.875,-,0,8.875,1,5,JKP,IPAD,1.0,
+,425,1.5,trial,0,81,81,81,,,,,,,,,,,81,0,81,,,,,13.3125,+,2,8.875,1,5,JKP,IPAD,1.0,
+,575,1.5,trial,0,82,82,82,,,,,,,,,,,82,0,82,,,,,13.3125,+,1,8.875,1,5,JKP,IPAD,1.0,
+,575,1,trial,0,83,83,83,,,,,,,,,,,83,0,83,,,,,8.875,+,2,8.875,1,5,JKP,IPAD,1.0,
+,425,1.5,trial,0,84,84,84,,,,,,,,,,,84,0,84,,,,,13.3125,-,1,8.875,0,5,JKP,IPAD,1.0,
-,500,1,trial,0,85,85,85,,,,,,,,,,,85,0,85,,,,,8.875,-,2,8.875,1,5,JKP,IPAD,1.0,
+,500,1.5,trial,0,86,86,86,,,,,,,,,,,86,0,86,,,,,13.3125,+,2,8.875,1,5,JKP,IPAD,1.0,
-,425,1,trial,0,87,87,87,,,,,,,,,,,87,0,87,,,,,8.875,-,1,8.875,1,5,JKP,IPAD,1.0,
-,500,1.5,trial,0,88,88,88,,,,,,,,,,,88,0,88,,,,,13.3125,-,1,8.875,1,5,JKP,IPAD,1.0,
-,500,1,trial,0,89,89,89,,,,,,,,,,,89,0,89,,,,,8.875,-,6,8.875,1,5,JKP,IPAD,1.0,
-,575,1.5,trial,0,90,90,90,,,,,,,,,,,90,0,90,,,,,13.3125,+,2,8.875,0,5,JKP,IPAD,1.0,
-,575,1,trial,0,91,91,91,,,,,,,,,,,91,0,91,,,,,8.875,-,1,8.875,1,5,JKP,IPAD,1.0,
+,500,1,trial,0,92,92,92,,,,,,,,,,,92,0,92,,,,,8.875,+,1,8.875,1,5,JKP,IPAD,1.0,
-,425,1.5,trial,0,93,93,93,,,,,,,,,,,93,0,93,,,,,13.3125,-,0,8.875,1,5,JKP,IPAD,1.0,
+,575,1,trial,0,94,94,94,,,,,,,,,,,94,0,94,,,,,8.875,+,2,8.875,1,5,JKP,IPAD,1.0,
+,425,1,trial,0,95,95,95,,,,,,,,,,,95,0,95,,,,,8.875,-,2,8.875,0,5,JKP,IPAD,1.0,
+,575,1.5,trial,0,96,96,96,,,,,,,,,,,96,0,96,,,,,13.3125,+,5,8.875,1,5,JKP,IPAD,1.0,
+,500,1,trial,0,97,97,97,,,,,,,,,,,97,0,97,,,,,8.875,+,0,8.875,1,5,JKP,IPAD,1.0,
+,500,1,trial,0,98,98,98,,,,,,,,,,,98,0,98,,,,,8.875,+,0,8.875,1,5,JKP,IPAD,1.0,
+,575,1.5,trial,0,99,99,99,,,,,,,,,,,99,0,99,,,,,13.3125,-,1,8.875,0,5,JKP,IPAD,1.0,
-,575,1.5,trial,0,100,100,100,,,,,,,,,,,100,0,100,,,,,13.3125,-,1,8.875,1,5,JKP,IPAD,1.0,
-,425,1,trial,0,101,101,101,,,,,,,,,,,101,0,101,,,,,8.875,-,0,8.875,1,5,JKP,IPAD,1.0,
+,425,1.5,trial,0,102,102,102,,,,,,,,,,,102,0,102,,,,,13.3125,-,1,8.875,0,5,JKP,IPAD,1.0,
+,575,1,trial,0,103,103,103,,,,,,,,,,,103,0,103,,,,,8.875,+,4,8.875,1,5,JKP,IPAD,1.0,
-,500,1.5,trial,0,104,104,104,,,,,,,,,,,104,0,104,,,,,13.3125,-,1,8.875,1,5,JKP,IPAD,1.0,
+,500,1,trial,0,105,105,105,,,,,,,,,,,105,0,105,,,,,8.875,+,1,8.875,1,5,JKP,IPAD,1.0,
+,575,1.5,trial,0,106,106,106,,,,,,,,,,,106,0,106,,,,,13.3125,+,0,8.875,1,5,JKP,IPAD,1.0,
-,575,1.5,trial,0,107,107,107,,,,,,,,,,,107,0,107,,,,,13.3125,-,1,8.875,1,5,JKP,IPAD,1.0,
+,425,1.5,trial,0,108,108,108,,,,,,,,,,,108,0,108,,,,,13.3125,-,2,8.875,0,5,JKP,IPAD,1.0,
-,575,1,trial,0,109,109,109,,,,,,,,,,,109,0,109,,,,,8.875,-,1,8.875,1,5,JKP,IPAD,1.0,
-,575,1.5,trial,0,110,110,110,,,,,,,,,,,110,0,110,,,,,13.3125,-,1,8.875,1,5,JKP,IPAD,1.0,
+,500,1.5,trial,0,111,111,111,,,,,,,,,,,111,0,111,,,,,13.3125,+,2,8.875,1,5,JKP,IPAD,1.0,
+,500,1.5,trial,0,112,112,112,,,,,,,,,,,112,0,112,,,,,13.3125,+,1,8.875,1,5,JKP,IPAD,1.0,
+,575,1,trial,0,113,113,113,,,,,,,,,,,113,0,113,,,,,8.875,+,1,8.875,1,5,JKP,IPAD,1.0,
+,500,1.5,trial,0,114,114,114,,,,,,,,,,,114,0,114,,,,,13.3125,+,1,8.875,1,5,JKP,IPAD,1.0,
+,575,1,trial,0,115,115,115,,,,,,,,,,,115,0,115,,,,,8.875,+,3,8.875,1,5,JKP,IPAD,1.0,
+,575,1.5,trial,0,116,116,116,,,,,,,,,,,116,0,116,,,,,13.3125,+,1,8.875,1,5,JKP,IPAD,1.0,
-,500,1.5,trial,0,117,117,117,,,,,,,,,,,117,0,117,,,,,13.3125,-,1,8.875,1,5,JKP,IPAD,1.0,
-,425,1,trial,0,118,118,118,,,,,,,,,,,118,0,118,,,,,8.875,-,2,8.875,1,5,JKP,IPAD,1.0,
+,425,1,trial,0,119,119,119,,,,,,,,,,,119,0,119,,,,,8.875,+,1,8.875,1,5,JKP,IPAD,1.0,
-,425,1.5,trial,0,120,120,120,,,,,,,,,,,120,0,120,,,,,13.3125,-,1,8.875,1,5,JKP,IPAD,1.0,
-,425,1,trial,0,121,121,121,,,,,,,,,,,121,0,121,,,,,8.875,-,2,8.875,1,5,JKP,IPAD,1.0,
-,500,1.5,trial,0,122,122,122,,,,,,,,,,,122,0,122,,,,,13.3125,-,1,8.875,1,5,JKP,IPAD,1.0,
+,425,1,trial,0,123,123,123,,,,,,,,,,,123,0,123,,,,,8.875,+,0,8.875,1,5,JKP,IPAD,1.0,
-,500,1.5,trial,0,124,124,124,,,,,,,,,,,124,0,124,,,,,13.3125,+,3,8.875,0,5,JKP,IPAD,1.0,
+,575,1,trial,0,125,125,125,,,,,,,,,,,125,0,125,,,,,8.875,+,0,8.875,1,5,JKP,IPAD,1.0,
-,575,1.5,trial,0,126,126,126,,,,,,,,,,,126,0,126,,,,,13.3125,-,3,8.875,1,5,JKP,IPAD,1.0,
+,500,1,trial,0,127,127,127,,,,,,,,,,,127,0,127,,,,,8.875,+,1,8.875,1,5,JKP,IPAD,1.0,
+,425,1.5,trial,0,128,128,128,,,,,,,,,,,128,0,128,,,,,13.3125,+,6,8.875,1,5,JKP,IPAD,1.0,
-,425,1,trial,0,129,129,129,,,,,,,,,,,129,0,129,,,,,8.875,-,1,8.875,1,5,JKP,IPAD,1.0,
-,425,1,trial,0,130,130,130,,,,,,,,,,,130,0,130,,,,,8.875,-,0,8.875,1,5,JKP,IPAD,1.0,
+,425,1,trial,0,131,131,131,,,,,,,,,,,131,0,131,,,,,8.875,+,1,8.875,1,5,JKP,IPAD,1.0,
+,425,1,trial,0,132,132,132,,,,,,,,,,,132,0,132,,,,,8.875,+,2,8.875,1,5,JKP,IPAD,1.0,
-,425,1,trial,0,133,133,133,,,,,,,,,,,133,0,133,,,,,8.875,-,1,8.875,1,5,JKP,IPAD,1.0,
+,425,1.5,trial,0,134,134,134,,,,,,,,,,,134,0,134,,,,,13.3125,-,1,8.875,0,5,JKP,IPAD,1.0,
-,425,1,trial,0,135,135,135,,,,,,,,,,,135,0,135,,,,,8.875,-,1,8.875,1,5,JKP,IPAD,1.0,
-,500,1.5,trial,0,136,136,136,,,,,,,,,,,136,0,136,,,,,13.3125,-,1,8.875,1,5,JKP,IPAD,1.0,
+,500,1.5,trial,0,137,137,137,,,,,,,,,,,137,0,137,,,,,13.3125,+,2,8.875,1,5,JKP,IPAD,1.0,
+,500,1,trial,0,138,138,138,,,,,,,,,,,138,0,138,,,,,8.875,+,2,8.875,1,5,JKP,IPAD,1.0,
+,500,1.5,trial,0,139,139,139,,,,,,,,,,,139,0,139,,,,,13.3125,+,4,8.875,1,5,JKP,IPAD,1.0,
-,500,1.5,trial,0,140,140,140,,,,,,,,,,,140,0,140,,,,,13.3125,-,0,8.875,1,5,JKP,IPAD,1.0,
-,500,1.5,trial,0,141,141,141,,,,,,,,,,,141,0,141,,,,,13.3125,-,1,8.875,1,5,JKP,IPAD,1.0,
+,425,1,trial,0,142,142,142,,,,,,,,,,,142,0,142,,,,,8.875,+,1,8.875,1,5,JKP,IPAD,1.0,
+,575,1.5,trial,0,143,143,143,,,,,,,,,,,143,0,143,,,,,13.3125,+,0,8.875,1,5,JKP,IPAD,1.0,
+,575,1.5,trial,0,144,144,144,,,,,,,,,,,144,0,144,,,,,13.3125,+,1,8.875,1,5,JKP,IPAD,1.0,
-,575,1.5,trial,0,145,145,145,,,,,,,,,,,145,0,145,,,,,13.3125,-,0,8.875,1,5,JKP,IPAD,1.0,
-,500,1.5,trial,0,146,146,146,,,,,,,,,,,146,0,146,,,,,13.3125,-,0,8.875,1,5,JKP,IPAD,1.0,
+,425,1,trial,0,147,147,147,,,,,,,,,,,147,0,147,,,,,8.875,+,3,8.875,1,5,JKP,IPAD,1.0,
+,425,1.5,trial,0,148,148,148,,,,,,,,,,,148,0,148,,,,,13.3125,+,2,8.875,1,5,JKP,IPAD,1.0,
+,575,1,trial,0,149,149,149,,,,,,,,,,,149,0,149,,,,,8.875,+,0,8.875,1,5,JKP,IPAD,1.0,
+,500,1.5,trial,0,150,150,150,,,,,,,,,,,150,0,150,,,,,13.3125,+,1,8.875,1,5,JKP,IPAD,1.0,
+,500,1,trial,0,151,151,151,,,,,,,,,,,151,0,151,,,,,8.875,+,0,8.875,1,5,JKP,IPAD,1.0,
-,575,1,trial,0,152,152,152,,,,,,,,,,,152,0,152,,,,,8.875,-,1,8.875,1,5,JKP,IPAD,1.0,
+,425,1.5,trial,0,153,153,153,,,,,,,,,,,153,0,153,,,,,13.3125,+,1,8.875,1,5,JKP,IPAD,1.0,
+,500,1.5,trial,0,154,154,154,,,,,,,,,,,154,0,154,,,,,13.3125,+,0,8.875,1,5,JKP,IPAD,1.0,
+,425,1.5,trial,0,155,155,155,,,,,,,,,,,155,0,155,,,,,13.3125,-,0,8.875,0,5,JKP,IPAD,1.0,
-,425,1.5,trial,0,156,156,156,,,,,,,,,,,156,0,156,,,,,13.3125,-,1,8.875,1,5,JKP,IPAD,1.0,
+,500,1,trial,0,157,157,157,,,,,,,,,,,157,0,157,,,,,8.875,-,4,8.875,0,5,JKP,IPAD,1.0,
-,575,1,trial,0,158,158,158,,,,,,,,,,,158,0,158,,,,,8.875,+,0,8.875,0,5,JKP,IPAD,1.0,
-,425,1.5,trial,0,159,159,159,,,,,,,,,,,159,0,159,,,,,13.3125,-,0,8.875,1,5,JKP,IPAD,1.0,
+,575,1,trial,0,160,160,160,,,,,,,,,,,160,0,160,,,,,8.875,+,4,8.875,1,5,JKP,IPAD,1.0,
-,500,1,trial,0,161,161,161,,,,,,,,,,,161,0,161,,,,,8.875,-,0,8.875,1,5,JKP,IPAD,1.0,
-,500,1,trial,0,162,162,162,,,,,,,,,,,162,0,162,,,,,8.875,-,1,8.875,1,5,JKP,IPAD,1.0,
+,575,1,trial,0,163,163,163,,,,,,,,,,,163,0,163,,,,,8.875,+,1,8.875,1,5,JKP,IPAD,1.0,
-,575,1,trial,0,164,164,164,,,,,,,,,,,164,0,164,,,,,8.875,-,1,8.875,1,5,JKP,IPAD,1.0,
-,425,1.5,trial,0,165,165,165,,,,,,,,,,,165,0,165,,,,,13.3125,-,0,8.875,1,5,JKP,IPAD,1.0,
-,575,1.5,trial,0,166,166,166,,,,,,,,,,,166,0,166,,,,,13.3125,-,0,8.875,1,5,JKP,IPAD,1.0,
+,500,1,trial,0,167,167,167,,,,,,,,,,,167,0,167,,,,,8.875,-,0,8.875,0,5,JKP,IPAD,1.0,
-,425,1,trial,0,168,168,168,,,,,,,,,,,168,0,168,,,,,8.875,-,1,8.875,1,5,JKP,IPAD,1.0,
-,575,1.5,trial,0,169,169,169,,,,,,,,,,,169,0,169,,,,,13.3125,-,1,8.875,1,5,JKP,IPAD,1.0,
-,425,1.5,trial,0,170,170,170,,,,,,,,,,,170,0,170,,,,,13.3125,-,1,8.875,1,5,JKP,IPAD,1.0,
-,575,1.5,trial,0,171,171,171,,,,,,,,,,,171,0,171,,,,,13.3125,-,1,8.875,1,5,JKP,IPAD,1.0,
-,425,1.5,trial,0,172,172,172,,,,,,,,,,,172,0,172,,,,,13.3125,-,0,8.875,1,5,JKP,IPAD,1.0,
+,500,1.5,trial,0,173,173,173,,,,,,,,,,,173,0,173,,,,,13.3125,+,2,8.875,1,5,JKP,IPAD,1.0,
-,575,1,trial,0,174,174,174,,,,,,,,,,,174,0,174,,,,,8.875,-,0,8.875,1,5,JKP,IPAD,1.0,
+,575,1.5,trial,0,175,175,175,,,,,,,,,,,175,0,175,,,,,13.3125,+,3,8.875,1,5,JKP,IPAD,1.0,
+,425,1,trial,0,176,176,176,,,,,,,,,,,176,0,176,,,,,8.875,-,0,8.875,0,5,JKP,IPAD,1.0,
-,500,1,trial,0,177,177,177,,,,,,,,,,,177,0,177,,,,,8.875,-,0,8.875,1,5,JKP,IPAD,1.0,
+,575,1,trial,0,178,178,178,,,,,,,,,,,178,0,178,,,,,8.875,+,1,8.875,1,5,JKP,IPAD,1.0,
+,575,1.5,trial,0,179,179,179,,,,,,,,,,,179,0,179,,,,,13.3125,+,1,8.875,1,5,JKP,IPAD,1.0,
-,575,1,trial,0,180,180,180,,,,,,,,,,,180,0,180,,,,,8.875,-,0,8.875,1,5,JKP,IPAD,1.0,
+,575,1.5,trial,0,181,181,181,,,,,,,,,,,181,0,181,,,,,13.3125,-,1,8.875,0,5,JKP,IPAD,1.0,
-,500,1,trial,0,182,182,182,,,,,,,,,,,182,0,182,,,,,8.875,-,1,8.875,1,5,JKP,IPAD,1.0,
-,500,1,trial,0,183,183,183,,,,,,,,,,,183,0,183,,,,,8.875,-,1,8.875,1,5,JKP,IPAD,1.0,
-,425,1.5,trial,0,184,184,184,,,,,,,,,,,184,0,184,,,,,13.3125,+,1,8.875,0,5,JKP,IPAD,1.0,
+,425,1.5,trial,0,185,185,185,,,,,,,,,,,185,0,185,,,,,13.3125,-,1,8.875,0,5,JKP,IPAD,1.0,
+,425,1,trial,0,186,186,186,,,,,,,,,,,186,0,186,,,,,8.875,-,1,8.875,0,5,JKP,IPAD,1.0,
+,575,1.5,trial,0,187,187,187,,,,,,,,,,,187,0,187,,,,,13.3125,-,2,8.875,0,5,JKP,IPAD,1.0,
-,500,1,trial,0,188,188,188,,,,,,,,,,,188,0,188,,,,,8.875,-,1,8.875,1,5,JKP,IPAD,1.0,
+,575,1.5,trial,0,189,189,189,,,,,,,,,,,189,0,189,,,,,13.3125,+,0,8.875,1,5,JKP,IPAD,1.0,
-,425,1.5,trial,0,190,190,190,,,,,,,,,,,190,0,190,,,,,13.3125,-,0,8.875,1,5,JKP,IPAD,1.0,
-,425,1.5,trial,0,191,191,191,,,,,,,,,,,191,0,191,,,,,13.3125,-,1,8.875,1,5,JKP,IPAD,1.0,
+,500,1,trial,0,192,192,192,,,,,,,,,,,192,0,192,,,,,8.875,+,4,8.875,1,5,JKP,IPAD,1.0,
+,500,1.5,trial,0,193,193,193,,,,,,,,,,,193,0,193,,,,,13.3125,+,1,8.875,1,5,JKP,IPAD,1.0,
+,500,1.5,trial,0,194,194,194,,,,,,,,,,,194,0,194,,,,,13.3125,+,1,8.875,1,5,JKP,IPAD,1.0,
+,425,1,trial,0,195,195,195,,,,,,,,,,,195,0,195,,,,,8.875,+,3,8.875,1,5,JKP,IPAD,1.0,
+,500,1,trial,0,196,196,196,,,,,,,,,,,196,0,196,,,,,8.875,+,1,8.875,1,5,JKP,IPAD,1.0,
+,500,1.5,trial,0,197,197,197,,,,,,,,,,,197,0,197,,,,,13.3125,+,1,8.875,1,5,JKP,IPAD,1.0,
-,575,1.5,trial,0,198,198,198,,,,,,,,,,,198,0,198,,,,,13.3125,-,1,8.875,1,5,JKP,IPAD,1.0,
+,575,1.5,trial,0,199,199,199,,,,,,,,,,,199,0,199,,,,,13.3125,+,1,8.875,1,5,JKP,IPAD,1.0,
-,575,1,trial,0,200,200,200,,,,,,,,,,,200,0,200,,,,,8.875,-,2,8.875,1,5,JKP,IPAD,1.0,
-,575,1,trial,0,201,201,201,,,,,,,,,,,201,0,201,,,,,8.875,-,1,8.875,1,5,JKP,IPAD,1.0,
-,575,1,trial,0,202,202,202,,,,,,,,,,,202,0,202,,,,,8.875,-,0,8.875,1,5,JKP,IPAD,1.0,
+,575,1.5,trial,0,203,203,203,,,,,,,,,,,203,0,203,,,,,13.3125,+,1,8.875,1,5,JKP,IPAD,1.0,
-,575,1.5,trial,0,204,204,204,,,,,,,,,,,204,0,204,,,,,13.3125,+,1,8.875,0,5,JKP,IPAD,1.0,
-,575,1.5,trial,0,205,205,205,,,,,,,,,,,205,0,205,,,,,13.3125,+,1,8.875,0,5,JKP,IPAD,1.0,
-,500,1,trial,0,206,206,206,,,,,,,,,,,206,0,206,,,,,8.875,+,1,8.875,0,5,JKP,IPAD,1.0,
+,425,1.5,trial,0,207,207,207,,,,,,,,,,,207,0,207,,,,,13.3125,-,3,8.875,0,5,JKP,IPAD,1.0,
+,425,1.5,trial,0,208,208,208,,,,,,,,,,,208,0,208,,,,,13.3125,-,2,8.875,0,5,JKP,IPAD,1.0,
-,575,1.5,trial,0,209,209,209,,,,,,,,,,,209,0,209,,,,,13.3125,-,1,8.875,1,5,JKP,IPAD,1.0,
+,425,1.5,trial,0,210,210,210,,,,,,,,,,,210,0,210,,,,,13.3125,+,2,8.875,1,5,JKP,IPAD,1.0,
+,500,1,trial,0,211,211,211,,,,,,,,,,,211,0,211,,,,,8.875,+,0,8.875,1,5,JKP,IPAD,1.0,
+,425,1,trial,0,212,212,212,,,,,,,,,,,212,0,212,,,,,8.875,-,1,8.875,0,5,JKP,IPAD,1.0,
+,575,1,trial,0,213,213,213,,,,,,,,,,,213,0,213,,,,,8.875,+,0,8.875,1,5,JKP,IPAD,1.0,
-,425,1,trial,0,214,214,214,,,,,,,,,,,214,0,214,,,,,8.875,-,2,8.875,1,5,JKP,IPAD,1.0,
-,425,1,trial,0,215,215,215,,,,,,,,,,,215,0,215,,,,,8.875,+,4,8.875,0,5,JKP,IPAD,1.0,
-,425,1,trial,0,216,216,216,,,,,,,,,,,216,0,216,,,,,8.875,+,1,8.875,0,5,JKP,IPAD,1.0,
-,425,1,trial,0,217,217,217,,,,,,,,,,,217,0,217,,,,,8.875,+,0,8.875,0,5,JKP,IPAD,1.0,
-,425,1.5,trial,0,218,218,218,,,,,,,,,,,218,0,218,,,,,13.3125,+,0,8.875,0,5,JKP,IPAD,1.0,
+,500,1.5,trial,0,219,219,219,,,,,,,,,,,219,0,219,,,,,13.3125,-,2,8.875,0,5,JKP,IPAD,1.0,
+,575,1,trial,0,220,220,220,,,,,,,,,,,220,0,220,,,,,8.875,+,1,8.875,1,5,JKP,IPAD,1.0,
+,425,1,trial,0,221,221,221,,,,,,,,,,,221,0,221,,,,,8.875,+,0,8.875,1,5,JKP,IPAD,1.0,
+,575,1,trial,0,222,222,222,,,,,,,,,,,222,0,222,,,,,8.875,-,1,8.875,0,5,JKP,IPAD,1.0,
-,500,1,trial,0,223,223,223,,,,,,,,,,,223,0,223,,,,,8.875,-,0,8.875,1,5,JKP,IPAD,1.0,
-,425,1,trial,0,224,224,224,,,,,,,,,,,224,0,224,,,,,8.875,-,0,8.875,1,5,JKP,IPAD,1.0,
-,500,1.5,trial,0,225,225,225,,,,,,,,,,,225,0,225,,,,,13.3125,-,1,8.875,1,5,JKP,IPAD,1.0,
+,575,1.5,trial,0,226,226,226,,,,,,,,,,,226,0,226,,,,,13.3125,+,0,8.875,1,5,JKP,IPAD,1.0,
+,500,1,trial,0,227,227,227,,,,,,,,,,,227,0,227,,,,,8.875,+,1,8.875,1,5,JKP,IPAD,1.0,
-,425,1.5,trial,0,228,228,228,,,,,,,,,,,228,0,228,,,,,13.3125,-,1,8.875,1,5,JKP,IPAD,1.0,
+,425,1.5,trial,0,229,229,229,,,,,,,,,,,229,0,229,,,,,13.3125,+,1,8.875,1,5,JKP,IPAD,1.0,
+,500,1.5,trial,0,230,230,230,,,,,,,,,,,230,0,230,,,,,13.3125,+,0,8.875,1,5,JKP,IPAD,1.0,
+,575,1,trial,0,231,231,231,,,,,,,,,,,231,0,231,,,,,8.875,-,1,8.875,0,5,JKP,IPAD,1.0,
-,500,1.5,trial,0,232,232,232,,,,,,,,,,,232,0,232,,,,,13.3125,-,0,8.875,1,5,JKP,IPAD,1.0,
-,500,1,trial,0,233,233,233,,,,,,,,,,,233,0,233,,,,,8.875,-,0,8.875,1,5,JKP,IPAD,1.0,
+,500,1,trial,0,234,234,234,,,,,,,,,,,234,0,234,,,,,8.875,+,1,8.875,1,5,JKP,IPAD,1.0,
-,500,1.5,trial,0,235,235,235,,,,,,,,,,,235,0,235,,,,,13.3125,-,0,8.875,1,5,JKP,IPAD,1.0,
+,575,1,trial,0,236,236,236,,,,,,,,,,,236,0,236,,,,,8.875,+,1,8.875,1,5,JKP,IPAD,1.0,
-,500,1,trial,0,237,237,237,,,,,,,,,,,237,0,237,,,,,8.875,-,1,8.875,1,5,JKP,IPAD,1.0,
-,500,1.5,trial,0,238,238,238,,,,,,,,,,,238,0,238,,,,,13.3125,+,1,8.875,0,5,JKP,IPAD,1.0,
-,500,1.5,trial,0,239,239,239,,,,,,,,,,,239,0,239,,,,,13.3125,-,0,8.875,1,5,JKP,IPAD,1.0,
+,425,1,trial,0,240,240,240,,,,,,,,,,,240,0,240,,,,,8.875,+,1,8.875,1,5,JKP,IPAD,1.0,
-,575,1.5,trial,0,241,241,241,,,,,,,,,,,241,0,241,,,,,13.3125,-,1,8.875,1,5,JKP,IPAD,1.0,
-,575,1,trial,0,242,242,242,,,,,,,,,,,242,0,242,,,,,8.875,-,1,8.875,1,5,JKP,IPAD,1.0,
-,575,1,trial,0,243,243,243,,,,,,,,,,,243,0,243,,,,,8.875,-,0,8.875,1,5,JKP,IPAD,1.0,
