shift,interval,difficulty,event,.thisRepN,.thisTrialN,.thisN,.thisIndex,.label,.startVal,.nReversals,.stepSizes,.nUp,.nDown,.minVal,.maxVal,.stepType,.shift,.thisIndex,.thisRepN,.thisN,.direction,.stepSize,.intensity,.response,shift_size,response,rt,jnd,correct,subject,experimenter,experiment,version,
,,,,0,-1,-1,0,l-,25,8,"[8, 8, 4, 4, 2, 2, 1, 1]",1,2,0,100,lin,-,0,0,-1,start,8,25,True,,,,,,15,mw,IPAD,1.1,
,,,,0,-1,-1,0,s-,1,8,"[8, 8, 4, 4, 2, 2, 1, 1]",1,2,0,100,lin,-,0,0,-1,start,8,1,True,,,,,,15,mw,IPAD,1.1,
,,,,0,-1,-1,0,l+,25,8,"[8, 8, 4, 4, 2, 2, 1, 1]",1,2,0,100,lin,+,0,0,-1,start,8,25,True,,,,,,15,mw,IPAD,1.1,
,,,,0,-1,-1,0,s+,1,8,"[8, 8, 4, 4, 2, 2, 1, 1]",1,2,0,100,lin,+,0,0,-1,start,8,1,False,,,,,,15,mw,IPAD,1.1,
,,,,0,-1,-1,0,l-,25,8,"[8, 8, 4, 4, 2, 2, 1, 1]",1,2,0,100,lin,-,0,0,-1,down,8,17,True,,,,,,15,mw,IPAD,1.1,
,,,,0,-1,-1,0,s-,1,8,"[8, 8, 4, 4, 2, 2, 1, 1]",1,2,0,100,lin,-,0,0,-1,down,8,0,False,,,,,,15,mw,IPAD,1.1,
,,,,0,-1,-1,0,l+,25,8,"[8, 8, 4, 4, 2, 2, 1, 1]",1,2,0,100,lin,+,0,0,-1,down,8,17,True,,,,,,15,mw,IPAD,1.1,
,,,,0,-1,-1,0,s+,1,8,"[8, 8, 4, 4, 2, 2, 1, 1]",1,2,0,100,lin,+,0,0,-1,up,8,9,True,,,,,,15,mw,IPAD,1.1,
,,,,0,-1,-1,0,s-,1,8,"[8, 8, 4, 4, 2, 2, 1, 1]",1,2,0,100,lin,-,0,0,-1,up,8,8,False,,,,,,15,mw,IPAD,1.1,
,,,,0,-1,-1,0,s+,1,8,"[8, 8, 4, 4, 2, 2, 1, 1]",1,2,0,100,lin,+,0,0,-1,down,8,1,True,,,,,,15,mw,IPAD,1.1,
,,,,0,-1,-1,0,l-,25,8,"[8, 8, 4, 4, 2, 2, 1, 1]",1,2,0,100,lin,-,0,0,-1,down,8,9,True,,,,,,15,mw,IPAD,1.1,
,,,,0,-1,-1,0,l+,25,8,"[8, 8, 4, 4, 2, 2, 1, 1]",1,2,0,100,lin,+,0,0,-1,down,8,9,True,,,,,,15,mw,IPAD,1.1,
,,,,0,-1,-1,0,l+,25,8,"[8, 8, 4, 4, 2, 2, 1, 1]",1,2,0,100,lin,+,0,0,-1,down,8,1,False,,,,,,15,mw,IPAD,1.1,
,,,,0,-1,-1,0,s-,1,8,"[8, 8, 4, 4, 2, 2, 1, 1]",1,2,0,100,lin,-,0,0,-1,up,8,16,False,,,,,,15,mw,IPAD,1.1,
,,,,0,-1,-1,0,l-,25,8,"[8, 8, 4, 4, 2, 2, 1, 1]",1,2,0,100,lin,-,0,0,-1,down,8,1,True,,,,,,15,mw,IPAD,1.1,
,,,,0,-1,-1,0,s+,1,8,"[8, 8, 4, 4, 2, 2, 1, 1]",1,2,0,100,lin,+,0,0,-1,down,8,1,True,,,,,,15,mw,IPAD,1.1,
,,,,0,-1,-1,0,l-,25,8,"[8, 8, 4, 4, 2, 2, 1, 1]",1,2,0,100,lin,-,0,0,-1,down,8,0,False,,,,,,15,mw,IPAD,1.1,
,,,,0,-1,-1,0,s-,1,8,"[8, 8, 4, 4, 2, 2, 1, 1]",1,2,0,100,lin,-,0,0,-1,up,8,24,False,,,,,,15,mw,IPAD,1.1,
,,,,0,-1,-1,0,l+,25,8,"[8, 8, 4, 4, 2, 2, 1, 1]",1,2,0,100,lin,+,0,0,-1,up,8,9,True,,,,,,15,mw,IPAD,1.1,
,,,,0,-1,-1,0,s+,1,8,"[8, 8, 4, 4, 2, 2, 1, 1]",1,2,0,100,lin,+,0,0,-1,down,8,0,False,,,,,,15,mw,IPAD,1.1,
,,,,0,-1,-1,0,s+,1,8,"[8, 8, 4, 4, 2, 2, 1, 1]",1,2,0,100,lin,+,0,0,-1,up,4,4,False,,,,,,15,mw,IPAD,1.1,
,,,,0,-1,-1,0,s-,1,8,"[8, 8, 4, 4, 2, 2, 1, 1]",1,2,0,100,lin,-,0,0,-1,up,8,32,True,,,,,,15,mw,IPAD,1.1,
,,,,0,-1,-1,0,l-,25,8,"[8, 8, 4, 4, 2, 2, 1, 1]",1,2,0,100,lin,-,0,0,-1,up,8,8,False,,,,,,15,mw,IPAD,1.1,
,,,,0,-1,-1,0,l+,25,8,"[8, 8, 4, 4, 2, 2, 1, 1]",1,2,0,100,lin,+,0,0,-1,up,8,9,True,,,,,,15,mw,IPAD,1.1,
,,,,0,-1,-1,0,s+,1,8,"[8, 8, 4, 4, 2, 2, 1, 1]",1,2,0,100,lin,+,0,0,-1,up,4,8,True,,,,,,15,mw,IPAD,1.1,
,,,,0,-1,-1,0,l-,25,8,"[8, 8, 4, 4, 2, 2, 1, 1]",1,2,0,100,lin,-,0,0,-1,up,8,16,True,,,,,,15,mw,IPAD,1.1,
,,,,0,-1,-1,0,s-,1,8,"[8, 8, 4, 4, 2, 2, 1, 1]",1,2,0,100,lin,-,0,0,-1,up,8,32,True,,,,,,15,mw,IPAD,1.1,
,,,,0,-1,-1,0,l+,25,8,"[8, 8, 4, 4, 2, 2, 1, 1]",1,2,0,100,lin,+,0,0,-1,down,4,5,False,,,,,,15,mw,IPAD,1.1,
,,,,0,-1,-1,0,l-,25,8,"[8, 8, 4, 4, 2, 2, 1, 1]",1,2,0,100,lin,-,0,0,-1,up,8,16,True,,,,,,15,mw,IPAD,1.1,
,,,,0,-1,-1,0,s-,1,8,"[8, 8, 4, 4, 2, 2, 1, 1]",1,2,0,100,lin,-,0,0,-1,down,4,28,False,,,,,,15,mw,IPAD,1.1,
,,,,0,-1,-1,0,l+,25,8,"[8, 8, 4, 4, 2, 2, 1, 1]",1,2,0,100,lin,+,0,0,-1,up,4,9,False,,,,,,15,mw,IPAD,1.1,
,,,,0,-1,-1,0,s+,1,8,"[8, 8, 4, 4, 2, 2, 1, 1]",1,2,0,100,lin,+,0,0,-1,up,4,8,False,,,,,,15,mw,IPAD,1.1,
,,,,0,-1,-1,0,l-,25,8,"[8, 8, 4, 4, 2, 2, 1, 1]",1,2,0,100,lin,-,0,0,-1,down,4,12,True,,,,,,15,mw,IPAD,1.1,
,,,,0,-1,-1,0,s-,1,8,"[8, 8, 4, 4, 2, 2, 1, 1]",1,2,0,100,lin,-,0,0,-1,up,4,32,True,,,,,,15,mw,IPAD,1.1,
,,,,0,-1,-1,0,l+,25,8,"[8, 8, 4, 4, 2, 2, 1, 1]",1,2,0,100,lin,+,0,0,-1,up,4,13,True,,,,,,15,mw,IPAD,1.1,
,,,,0,-1,-1,0,s+,1,8,"[8, 8, 4, 4, 2, 2, 1, 1]",1,2,0,100,lin,+,0,0,-1,up,4,12,False,,,,,,15,mw,IPAD,1.1,
,,,,0,-1,-1,0,s+,1,8,"[8, 8, 4, 4, 2, 2, 1, 1]",1,2,0,100,lin,+,0,0,-1,up,4,16,True,,,,,,15,mw,IPAD,1.1,
,,,,0,-1,-1,0,s-,1,8,"[8, 8, 4, 4, 2, 2, 1, 1]",1,2,0,100,lin,-,0,0,-1,up,4,32,True,,,,,,15,mw,IPAD,1.1,
,,,,0,-1,-1,0,l-,25,8,"[8, 8, 4, 4, 2, 2, 1, 1]",1,2,0,100,lin,-,0,0,-1,down,4,12,False,,,,,,15,mw,IPAD,1.1,
,,,,0,-1,-1,0,l+,25,8,"[8, 8, 4, 4, 2, 2, 1, 1]",1,2,0,100,lin,+,0,0,-1,up,4,13,True,,,,,,15,mw,IPAD,1.1,
,,,,0,-1,-1,0,s-,1,8,"[8, 8, 4, 4, 2, 2, 1, 1]",1,2,0,100,lin,-,0,0,-1,down,2,30,False,,,,,,15,mw,IPAD,1.1,
,,,,0,-1,-1,0,l+,25,8,"[8, 8, 4, 4, 2, 2, 1, 1]",1,2,0,100,lin,+,0,0,-1,down,2,11,True,,,,,,15,mw,IPAD,1.1,
,,,,0,-1,-1,0,s+,1,8,"[8, 8, 4, 4, 2, 2, 1, 1]",1,2,0,100,lin,+,0,0,-1,up,4,16,True,,,,,,15,mw,IPAD,1.1,
,,,,0,-1,-1,0,l-,25,8,"[8, 8, 4, 4, 2, 2, 1, 1]",1,2,0,100,lin,-,0,0,-1,up,4,16,True,,,,,,15,mw,IPAD,1.1,
,,,,0,-1,-1,0,l-,25,8,"[8, 8, 4, 4, 2, 2, 1, 1]",1,2,0,100,lin,-,0,0,-1,up,4,16,True,,,,,,15,mw,IPAD,1.1,
,,,,0,-1,-1,0,s+,1,8,"[8, 8, 4, 4, 2, 2, 1, 1]",1,2,0,100,lin,+,0,0,-1,down,4,12,True,,,,,,15,mw,IPAD,1.1,
,,,,0,-1,-1,0,s-,1,8,"[8, 8, 4, 4, 2, 2, 1, 1]",1,2,0,100,lin,-,0,0,-1,up,2,32,True,,,,,,15,mw,IPAD,1.1,
,,,,0,-1,-1,0,l+,25,8,"[8, 8, 4, 4, 2, 2, 1, 1]",1,2,0,100,lin,+,0,0,-1,down,2,11,False,,,,,,15,mw,IPAD,1.1,
,,,,0,-1,-1,0,s+,1,8,"[8, 8, 4, 4, 2, 2, 1, 1]",1,2,0,100,lin,+,0,0,-1,down,4,12,True,,,,,,15,mw,IPAD,1.1,
,,,,0,-1,-1,0,l+,25,8,"[8, 8, 4, 4, 2, 2, 1, 1]",1,2,0,100,lin,+,0,0,-1,up,2,13,False,,,,,,15,mw,IPAD,1.1,
,,,,0,-1,-1,0,s-,1,8,"[8, 8, 4, 4, 2, 2, 1, 1]",1,2,0,100,lin,-,0,0,-1,up,2,32,False,,,,,,15,mw,IPAD,1.1,
,,,,0,-1,-1,0,l-,25,8,"[8, 8, 4, 4, 2, 2, 1, 1]",1,2,0,100,lin,-,0,0,-1,down,2,14,False,,,,,,15,mw,IPAD,1.1,
,,,,0,-1,-1,0,l+,25,8,"[8, 8, 4, 4, 2, 2, 1, 1]",1,2,0,100,lin,+,0,0,-1,up,2,15,True,,,,,,15,mw,IPAD,1.1,
,,,,0,-1,-1,0,s+,1,8,"[8, 8, 4, 4, 2, 2, 1, 1]",1,2,0,100,lin,+,0,0,-1,down,4,8,True,,,,,,15,mw,IPAD,1.1,
,,,,0,-1,-1,0,l-,25,8,"[8, 8, 4, 4, 2, 2, 1, 1]",1,2,0,100,lin,-,0,0,-1,up,2,16,True,,,,,,15,mw,IPAD,1.1,
,,,,0,-1,-1,0,s-,1,8,"[8, 8, 4, 4, 2, 2, 1, 1]",1,2,0,100,lin,-,0,0,-1,up,2,34,False,,,,,,15,mw,IPAD,1.1,
,,,,0,-1,-1,0,l-,25,8,"[8, 8, 4, 4, 2, 2, 1, 1]",1,2,0,100,lin,-,0,0,-1,up,2,16,True,,,,,,15,mw,IPAD,1.1,
,,,,0,-1,-1,0,l+,25,8,"[8, 8, 4, 4, 2, 2, 1, 1]",1,2,0,100,lin,+,0,0,-1,up,2,15,True,,,,,,15,mw,IPAD,1.1,
,,,,0,-1,-1,0,s+,1,8,"[8, 8, 4, 4, 2, 2, 1, 1]",1,2,0,100,lin,+,0,0,-1,down,4,8,False,,,,,,15,mw,IPAD,1.1,
,,,,0,-1,-1,0,s-,1,8,"[8, 8, 4, 4, 2, 2, 1, 1]",1,2,0,100,lin,-,0,0,-1,up,2,36,True,,,,,,15,mw,IPAD,1.1,
,,,,0,-1,-1,0,l-,25,8,"[8, 8, 4, 4, 2, 2, 1, 1]",1,2,0,100,lin,-,0,0,-1,down,1,15,False,,,,,,15,mw,IPAD,1.1,
,,,,0,-1,-1,0,s-,1,8,"[8, 8, 4, 4, 2, 2, 1, 1]",1,2,0,100,lin,-,0,0,-1,up,2,36,True,,,,,,15,mw,IPAD,1.1,
,,,,0,-1,-1,0,l+,25,8,"[8, 8, 4, 4, 2, 2, 1, 1]",1,2,0,100,lin,+,0,0,-1,down,1,14,False,,,,,,15,mw,IPAD,1.1,
,,,,0,-1,-1,0,s+,1,8,"[8, 8, 4, 4, 2, 2, 1, 1]",1,2,0,100,lin,+,0,0,-1,up,2,10,False,,,,,,15,mw,IPAD,1.1,
,,,,0,-1,-1,0,s+,1,8,"[8, 8, 4, 4, 2, 2, 1, 1]",1,2,0,100,lin,+,0,0,-1,up,2,12,False,,,,,,15,mw,IPAD,1.1,
,,,,0,-1,-1,0,s-,1,8,"[8, 8, 4, 4, 2, 2, 1, 1]",1,2,0,100,lin,-,0,0,-1,down,1,35,True,,,,,,15,mw,IPAD,1.1,
,,,,0,-1,-1,0,l-,25,8,"[8, 8, 4, 4, 2, 2, 1, 1]",1,2,0,100,lin,-,0,0,-1,up,1,16,True,,,,,,15,mw,IPAD,1.1,
,,,,0,-1,-1,0,l+,25,8,"[8, 8, 4, 4, 2, 2, 1, 1]",1,2,0,100,lin,+,0,0,-1,up,1,15,True,,,,,,15,mw,IPAD,1.1,
,,,,0,-1,-1,0,l+,25,8,"[8, 8, 4, 4, 2, 2, 1, 1]",1,2,0,100,lin,+,0,0,-1,up,1,15,False,,,,,,15,mw,IPAD,1.1,
,,,,0,-1,-1,0,s+,1,8,"[8, 8, 4, 4, 2, 2, 1, 1]",1,2,0,100,lin,+,0,0,-1,up,2,14,False,,,,,,15,mw,IPAD,1.1,
,,,,0,-1,-1,0,s-,1,8,"[8, 8, 4, 4, 2, 2, 1, 1]",1,2,0,100,lin,-,0,0,-1,down,1,35,True,,,,,,15,mw,IPAD,1.1,
,,,,0,-1,-1,0,l-,25,8,"[8, 8, 4, 4, 2, 2, 1, 1]",1,2,0,100,lin,-,0,0,-1,up,1,16,True,,,,,,15,mw,IPAD,1.1,
,,,,0,-1,-1,0,l+,25,8,"[8, 8, 4, 4, 2, 2, 1, 1]",1,2,0,100,lin,+,0,0,-1,up,1,16,False,,,,,,15,mw,IPAD,1.1,
,,,,0,-1,-1,0,s-,1,8,"[8, 8, 4, 4, 2, 2, 1, 1]",1,2,0,100,lin,-,0,0,-1,down,1,34,True,,,,,,15,mw,IPAD,1.1,
,,,,0,-1,-1,0,s+,1,8,"[8, 8, 4, 4, 2, 2, 1, 1]",1,2,0,100,lin,+,0,0,-1,up,2,16,False,,,,,,15,mw,IPAD,1.1,
,,,,0,-1,-1,0,l+,25,8,"[8, 8, 4, 4, 2, 2, 1, 1]",1,2,0,100,lin,+,0,0,-1,up,1,17,False,,,,,,15,mw,IPAD,1.1,
,,,,0,-1,-1,0,s+,1,8,"[8, 8, 4, 4, 2, 2, 1, 1]",1,2,0,100,lin,+,0,0,-1,up,2,18,True,,,,,,15,mw,IPAD,1.1,
,,,,0,-1,-1,0,s-,1,8,"[8, 8, 4, 4, 2, 2, 1, 1]",1,2,0,100,lin,-,0,0,-1,down,1,34,True,,,,,,15,mw,IPAD,1.1,
,,,,0,-1,-1,0,l+,25,8,"[8, 8, 4, 4, 2, 2, 1, 1]",1,2,0,100,lin,+,0,0,-1,up,1,18,False,,,,,,15,mw,IPAD,1.1,
,,,,0,-1,-1,0,s-,1,8,"[8, 8, 4, 4, 2, 2, 1, 1]",1,2,0,100,lin,-,0,0,-1,down,1,33,True,,,,,,15,mw,IPAD,1.1,
,,,,0,-1,-1,0,s+,1,8,"[8, 8, 4, 4, 2, 2, 1, 1]",1,2,0,100,lin,+,0,0,-1,up,2,18,True,,,,,,15,mw,IPAD,1.1,
,,,,0,-1,-1,0,s+,1,8,"[8, 8, 4, 4, 2, 2, 1, 1]",1,2,0,100,lin,+,0,0,-1,down,2,16,True,,,,,,15,mw,IPAD,1.1,
,,,,0,-1,-1,0,s-,1,8,"[8, 8, 4, 4, 2, 2, 1, 1]",1,2,0,100,lin,-,0,0,-1,down,1,33,False,,,,,,15,mw,IPAD,1.1,
,,,,0,-1,-1,0,l+,25,8,"[8, 8, 4, 4, 2, 2, 1, 1]",1,2,0,100,lin,+,0,0,-1,up,1,19,True,,,,,,15,mw,IPAD,1.1,
,,,,0,-1,-1,0,l+,25,8,"[8, 8, 4, 4, 2, 2, 1, 1]",1,2,0,100,lin,+,0,0,-1,up,1,19,True,,,,,,15,mw,IPAD,1.1,
,,,,0,-1,-1,0,s-,1,8,"[8, 8, 4, 4, 2, 2, 1, 1]",1,2,0,100,lin,-,0,0,-1,up,1,34,False,,,,,,15,mw,IPAD,1.1,
,,,,0,-1,-1,0,s+,1,8,"[8, 8, 4, 4, 2, 2, 1, 1]",1,2,0,100,lin,+,0,0,-1,down,2,16,True,,,,,,15,mw,IPAD,1.1,
,,,,0,-1,-1,0,s+,1,8,"[8, 8, 4, 4, 2, 2, 1, 1]",1,2,0,100,lin,+,0,0,-1,down,2,14,True,,,,,,15,mw,IPAD,1.1,
,,,,0,-1,-1,0,s-,1,8,"[8, 8, 4, 4, 2, 2, 1, 1]",1,2,0,100,lin,-,0,0,-1,up,1,35,True,,,,,,15,mw,IPAD,1.1,
,,,,0,-1,-1,0,s-,1,8,"[8, 8, 4, 4, 2, 2, 1, 1]",1,2,0,100,lin,-,0,0,-1,up,1,35,True,,,,,,15,mw,IPAD,1.1,
,,,,0,-1,-1,0,s+,1,8,"[8, 8, 4, 4, 2, 2, 1, 1]",1,2,0,100,lin,+,0,0,-1,down,2,14,False,,,,,,15,mw,IPAD,1.1,
,,,,0,-1,-1,0,s+,1,8,"[8, 8, 4, 4, 2, 2, 1, 1]",1,2,0,100,lin,+,0,0,-1,up,1,15,False,,,,,,15,mw,IPAD,1.1,
,,,,0,-1,-1,0,s+,1,8,"[8, 8, 4, 4, 2, 2, 1, 1]",1,2,0,100,lin,+,0,0,-1,up,1,16,False,,,,,,15,mw,IPAD,1.1,
,,,,0,-1,-1,0,s+,1,8,"[8, 8, 4, 4, 2, 2, 1, 1]",1,2,0,100,lin,+,0,0,-1,up,1,17,False,,,,,,15,mw,IPAD,1.1,
,,,,0,-1,-1,0,s+,1,8,"[8, 8, 4, 4, 2, 2, 1, 1]",1,2,0,100,lin,+,0,0,-1,up,1,18,True,,,,,,15,mw,IPAD,1.1,
,,,,0,-1,-1,0,s+,1,8,"[8, 8, 4, 4, 2, 2, 1, 1]",1,2,0,100,lin,+,0,0,-1,up,1,18,True,,,,,,15,mw,IPAD,1.1,
,,,,0,-1,-1,0,s+,1,8,"[8, 8, 4, 4, 2, 2, 1, 1]",1,2,0,100,lin,+,0,0,-1,down,1,17,True,,,,,,15,mw,IPAD,1.1,
,,,,0,-1,-1,0,s+,1,8,"[8, 8, 4, 4, 2, 2, 1, 1]",1,2,0,100,lin,+,0,0,-1,down,1,17,True,,,,,,15,mw,IPAD,1.1,
,,,,0,-1,-1,0,s+,1,8,"[8, 8, 4, 4, 2, 2, 1, 1]",1,2,0,100,lin,+,0,0,-1,down,1,16,True,,,,,,15,mw,IPAD,1.1,
,,,,0,-1,-1,0,s+,1,8,"[8, 8, 4, 4, 2, 2, 1, 1]",1,2,0,100,lin,+,0,0,-1,down,1,16,True,,,,,,15,mw,IPAD,1.1,
,,,,0,-1,-1,0,s+,1,8,"[8, 8, 4, 4, 2, 2, 1, 1]",1,2,0,100,lin,+,0,0,-1,down,1,15,True,,,,,,15,mw,IPAD,1.1,
,,,,0,-1,-1,0,s+,1,8,"[8, 8, 4, 4, 2, 2, 1, 1]",1,2,0,100,lin,+,0,0,-1,down,1,15,True,,,,,,15,mw,IPAD,1.1,
,,,,0,-1,-1,0,s+,1,8,"[8, 8, 4, 4, 2, 2, 1, 1]",1,2,0,100,lin,+,0,0,-1,down,1,14,False,,,,,,15,mw,IPAD,1.1,
-,500,4,practice,0,0,0,0,,,,,,,,,,,0,0,0,,,,,79.5,-,2,19.875,1,15,mw,IPAD,1.1,
-,500,4,practice,0,1,1,1,,,,,,,,,,,1,0,1,,,,,79.5,+,1,19.875,0,15,mw,IPAD,1.1,
+,500,4,practice,0,2,2,2,,,,,,,,,,,2,0,2,,,,,79.5,-,2,19.875,0,15,mw,IPAD,1.1,
+,500,4,practice,0,3,3,3,,,,,,,,,,,3,0,3,,,,,79.5,+,0,19.875,1,15,mw,IPAD,1.1,
