shift,interval,difficulty,event,.thisRepN,.thisTrialN,.thisN,.thisIndex,.label,.startVal,.nReversals,.stepSizes,.nUp,.nDown,.minVal,.maxVal,.stepType,.shift,.thisIndex,.thisRepN,.thisN,.direction,.stepSize,.intensity,.response,shift_size,response,rt,jnd,correct,subject,experimenter,experiment,version,
,,,,0,-1,-1,0,l+,25,8,"[8, 8, 4, 4, 2, 2, 1, 1]",1,2,0,100,lin,+,0,0,-1,start,8,25,True,,,,,,10,OMR,IPAD,1.0,
,,,,0,-1,-1,0,s+,1,8,"[8, 8, 4, 4, 2, 2, 1, 1]",1,2,0,100,lin,+,0,0,-1,start,8,1,True,,,,,,10,OMR,IPAD,1.0,
,,,,0,-1,-1,0,s-,1,8,"[8, 8, 4, 4, 2, 2, 1, 1]",1,2,0,100,lin,-,0,0,-1,start,8,1,False,,,,,,10,OMR,IPAD,1.0,
,,,,0,-1,-1,0,l-,25,8,"[8, 8, 4, 4, 2, 2, 1, 1]",1,2,0,100,lin,-,0,0,-1,start,8,25,True,,,,,,10,OMR,IPAD,1.0,
,,,,0,-1,-1,0,s+,1,8,"[8, 8, 4, 4, 2, 2, 1, 1]",1,2,0,100,lin,+,0,0,-1,down,8,0,False,,,,,,10,OMR,IPAD,1.0,
,,,,0,-1,-1,0,s-,1,8,"[8, 8, 4, 4, 2, 2, 1, 1]",1,2,0,100,lin,-,0,0,-1,up,8,9,True,,,,,,10,OMR,IPAD,1.0,
,,,,0,-1,-1,0,l-,25,8,"[8, 8, 4, 4, 2, 2, 1, 1]",1,2,0,100,lin,-,0,0,-1,down,8,17,True,,,,,,10,OMR,IPAD,1.0,
,,,,0,-1,-1,0,l+,25,8,"[8, 8, 4, 4, 2, 2, 1, 1]",1,2,0,100,lin,+,0,0,-1,down,8,17,True,,,,,,10,OMR,IPAD,1.0,
,,,,0,-1,-1,0,s-,1,8,"[8, 8, 4, 4, 2, 2, 1, 1]",1,2,0,100,lin,-,0,0,-1,down,8,1,False,,,,,,10,OMR,IPAD,1.0,
,,,,0,-1,-1,0,l+,25,8,"[8, 8, 4, 4, 2, 2, 1, 1]",1,2,0,100,lin,+,0,0,-1,down,8,9,True,,,,,,10,OMR,IPAD,1.0,
,,,,0,-1,-1,0,s+,1,8,"[8, 8, 4, 4, 2, 2, 1, 1]",1,2,0,100,lin,+,0,0,-1,up,8,8,True,,,,,,10,OMR,IPAD,1.0,
,,,,0,-1,-1,0,l-,25,8,"[8, 8, 4, 4, 2, 2, 1, 1]",1,2,0,100,lin,-,0,0,-1,down,8,9,True,,,,,,10,OMR,IPAD,1.0,
,,,,0,-1,-1,0,s+,1,8,"[8, 8, 4, 4, 2, 2, 1, 1]",1,2,0,100,lin,+,0,0,-1,up,8,8,True,,,,,,10,OMR,IPAD,1.0,
,,,,0,-1,-1,0,l-,25,8,"[8, 8, 4, 4, 2, 2, 1, 1]",1,2,0,100,lin,-,0,0,-1,down,8,1,True,,,,,,10,OMR,IPAD,1.0,
,,,,0,-1,-1,0,s-,1,8,"[8, 8, 4, 4, 2, 2, 1, 1]",1,2,0,100,lin,-,0,0,-1,up,4,5,False,,,,,,10,OMR,IPAD,1.0,
,,,,0,-1,-1,0,l+,25,8,"[8, 8, 4, 4, 2, 2, 1, 1]",1,2,0,100,lin,+,0,0,-1,down,8,1,True,,,,,,10,OMR,IPAD,1.0,
,,,,0,-1,-1,0,s+,1,8,"[8, 8, 4, 4, 2, 2, 1, 1]",1,2,0,100,lin,+,0,0,-1,down,4,4,True,,,,,,10,OMR,IPAD,1.0,
,,,,0,-1,-1,0,l+,25,8,"[8, 8, 4, 4, 2, 2, 1, 1]",1,2,0,100,lin,+,0,0,-1,down,8,0,False,,,,,,10,OMR,IPAD,1.0,
,,,,0,-1,-1,0,l-,25,8,"[8, 8, 4, 4, 2, 2, 1, 1]",1,2,0,100,lin,-,0,0,-1,down,8,0,False,,,,,,10,OMR,IPAD,1.0,
,,,,0,-1,-1,0,s-,1,8,"[8, 8, 4, 4, 2, 2, 1, 1]",1,2,0,100,lin,-,0,0,-1,up,4,9,True,,,,,,10,OMR,IPAD,1.0,
,,,,0,-1,-1,0,s+,1,8,"[8, 8, 4, 4, 2, 2, 1, 1]",1,2,0,100,lin,+,0,0,-1,down,4,4,True,,,,,,10,OMR,IPAD,1.0,
,,,,0,-1,-1,0,s-,1,8,"[8, 8, 4, 4, 2, 2, 1, 1]",1,2,0,100,lin,-,0,0,-1,up,4,9,True,,,,,,10,OMR,IPAD,1.0,
,,,,0,-1,-1,0,l+,25,8,"[8, 8, 4, 4, 2, 2, 1, 1]",1,2,0,100,lin,+,0,0,-1,up,8,8,True,,,,,,10,OMR,IPAD,1.0,
,,,,0,-1,-1,0,l-,25,8,"[8, 8, 4, 4, 2, 2, 1, 1]",1,2,0,100,lin,-,0,0,-1,up,8,8,True,,,,,,10,OMR,IPAD,1.0,
,,,,0,-1,-1,0,l+,25,8,"[8, 8, 4, 4, 2, 2, 1, 1]",1,2,0,100,lin,+,0,0,-1,up,8,8,True,,,,,,10,OMR,IPAD,1.0,
,,,,0,-1,-1,0,s+,1,8,"[8, 8, 4, 4, 2, 2, 1, 1]",1,2,0,100,lin,+,0,0,-1,down,4,0,False,,,,,,10,OMR,IPAD,1.0,
,,,,0,-1,-1,0,s-,1,8,"[8, 8, 4, 4, 2, 2, 1, 1]",1,2,0,100,lin,-,0,0,-1,down,4,5,True,,,,,,10,OMR,IPAD,1.0,
,,,,0,-1,-1,0,l-,25,8,"[8, 8, 4, 4, 2, 2, 1, 1]",1,2,0,100,lin,-,0,0,-1,up,8,8,True,,,,,,10,OMR,IPAD,1.0,
,,,,0,-1,-1,0,l-,25,8,"[8, 8, 4, 4, 2, 2, 1, 1]",1,2,0,100,lin,-,0,0,-1,down,4,4,True,,,,,,10,OMR,IPAD,1.0,
,,,,0,-1,-1,0,s-,1,8,"[8, 8, 4, 4, 2, 2, 1, 1]",1,2,0,100,lin,-,0,0,-1,down,4,5,True,,,,,,10,OMR,IPAD,1.0,
,,,,0,-1,-1,0,l+,25,8,"[8, 8, 4, 4, 2, 2, 1, 1]",1,2,0,100,lin,+,0,0,-1,down,4,4,True,,,,,,10,OMR,IPAD,1.0,
,,,,0,-1,-1,0,s+,1,8,"[8, 8, 4, 4, 2, 2, 1, 1]",1,2,0,100,lin,+,0,0,-1,up,4,4,True,,,,,,10,OMR,IPAD,1.0,
,,,,0,-1,-1,0,s-,1,8,"[8, 8, 4, 4, 2, 2, 1, 1]",1,2,0,100,lin,-,0,0,-1,down,4,1,True,,,,,,10,OMR,IPAD,1.0,
,,,,0,-1,-1,0,l+,25,8,"[8, 8, 4, 4, 2, 2, 1, 1]",1,2,0,100,lin,+,0,0,-1,down,4,4,True,,,,,,10,OMR,IPAD,1.0,
,,,,0,-1,-1,0,s+,1,8,"[8, 8, 4, 4, 2, 2, 1, 1]",1,2,0,100,lin,+,0,0,-1,up,4,4,True,,,,,,10,OMR,IPAD,1.0,
,,,,0,-1,-1,0,l-,25,8,"[8, 8, 4, 4, 2, 2, 1, 1]",1,2,0,100,lin,-,0,0,-1,down,4,4,True,,,,,,10,OMR,IPAD,1.0,
,,,,0,-1,-1,0,s-,1,8,"[8, 8, 4, 4, 2, 2, 1, 1]",1,2,0,100,lin,-,0,0,-1,down,4,1,True,,,,,,10,OMR,IPAD,1.0,
,,,,0,-1,-1,0,l-,25,8,"[8, 8, 4, 4, 2, 2, 1, 1]",1,2,0,100,lin,-,0,0,-1,down,4,0,False,,,,,,10,OMR,IPAD,1.0,
,,,,0,-1,-1,0,l+,25,8,"[8, 8, 4, 4, 2, 2, 1, 1]",1,2,0,100,lin,+,0,0,-1,down,4,0,False,,,,,,10,OMR,IPAD,1.0,
,,,,0,-1,-1,0,s+,1,8,"[8, 8, 4, 4, 2, 2, 1, 1]",1,2,0,100,lin,+,0,0,-1,down,2,2,False,,,,,,10,OMR,IPAD,1.0,
,,,,0,-1,-1,0,s-,1,8,"[8, 8, 4, 4, 2, 2, 1, 1]",1,2,0,100,lin,-,0,0,-1,down,4,0,False,,,,,,10,OMR,IPAD,1.0,
,,,,0,-1,-1,0,s+,1,8,"[8, 8, 4, 4, 2, 2, 1, 1]",1,2,0,100,lin,+,0,0,-1,up,2,4,True,,,,,,10,OMR,IPAD,1.0,
,,,,0,-1,-1,0,l-,25,8,"[8, 8, 4, 4, 2, 2, 1, 1]",1,2,0,100,lin,-,0,0,-1,up,4,4,True,,,,,,10,OMR,IPAD,1.0,
,,,,0,-1,-1,0,l+,25,8,"[8, 8, 4, 4, 2, 2, 1, 1]",1,2,0,100,lin,+,0,0,-1,up,4,4,True,,,,,,10,OMR,IPAD,1.0,
,,,,0,-1,-1,0,s-,1,8,"[8, 8, 4, 4, 2, 2, 1, 1]",1,2,0,100,lin,-,0,0,-1,up,2,2,True,,,,,,10,OMR,IPAD,1.0,
,,,,0,-1,-1,0,l+,25,8,"[8, 8, 4, 4, 2, 2, 1, 1]",1,2,0,100,lin,+,0,0,-1,up,4,4,True,,,,,,10,OMR,IPAD,1.0,
,,,,0,-1,-1,0,l-,25,8,"[8, 8, 4, 4, 2, 2, 1, 1]",1,2,0,100,lin,-,0,0,-1,up,4,4,True,,,,,,10,OMR,IPAD,1.0,
,,,,0,-1,-1,0,s+,1,8,"[8, 8, 4, 4, 2, 2, 1, 1]",1,2,0,100,lin,+,0,0,-1,up,2,4,True,,,,,,10,OMR,IPAD,1.0,
,,,,0,-1,-1,0,l+,25,8,"[8, 8, 4, 4, 2, 2, 1, 1]",1,2,0,100,lin,+,0,0,-1,down,2,2,False,,,,,,10,OMR,IPAD,1.0,
,,,,0,-1,-1,0,l-,25,8,"[8, 8, 4, 4, 2, 2, 1, 1]",1,2,0,100,lin,-,0,0,-1,down,2,2,True,,,,,,10,OMR,IPAD,1.0,
,,,,0,-1,-1,0,s+,1,8,"[8, 8, 4, 4, 2, 2, 1, 1]",1,2,0,100,lin,+,0,0,-1,down,1,3,True,,,,,,10,OMR,IPAD,1.0,
,,,,0,-1,-1,0,s-,1,8,"[8, 8, 4, 4, 2, 2, 1, 1]",1,2,0,100,lin,-,0,0,-1,up,2,2,True,,,,,,10,OMR,IPAD,1.0,
,,,,0,-1,-1,0,l-,25,8,"[8, 8, 4, 4, 2, 2, 1, 1]",1,2,0,100,lin,-,0,0,-1,down,2,2,True,,,,,,10,OMR,IPAD,1.0,
,,,,0,-1,-1,0,s-,1,8,"[8, 8, 4, 4, 2, 2, 1, 1]",1,2,0,100,lin,-,0,0,-1,down,2,0,False,,,,,,10,OMR,IPAD,1.0,
,,,,0,-1,-1,0,s+,1,8,"[8, 8, 4, 4, 2, 2, 1, 1]",1,2,0,100,lin,+,0,0,-1,down,1,3,True,,,,,,10,OMR,IPAD,1.0,
,,,,0,-1,-1,0,l+,25,8,"[8, 8, 4, 4, 2, 2, 1, 1]",1,2,0,100,lin,+,0,0,-1,up,2,4,False,,,,,,10,OMR,IPAD,1.0,
,,,,0,-1,-1,0,l-,25,8,"[8, 8, 4, 4, 2, 2, 1, 1]",1,2,0,100,lin,-,0,0,-1,down,2,0,False,,,,,,10,OMR,IPAD,1.0,
,,,,0,-1,-1,0,s+,1,8,"[8, 8, 4, 4, 2, 2, 1, 1]",1,2,0,100,lin,+,0,0,-1,down,1,2,False,,,,,,10,OMR,IPAD,1.0,
,,,,0,-1,-1,0,l+,25,8,"[8, 8, 4, 4, 2, 2, 1, 1]",1,2,0,100,lin,+,0,0,-1,up,2,6,True,,,,,,10,OMR,IPAD,1.0,
,,,,0,-1,-1,0,s-,1,8,"[8, 8, 4, 4, 2, 2, 1, 1]",1,2,0,100,lin,-,0,0,-1,up,1,1,True,,,,,,10,OMR,IPAD,1.0,
,,,,0,-1,-1,0,s+,1,8,"[8, 8, 4, 4, 2, 2, 1, 1]",1,2,0,100,lin,+,0,0,-1,up,1,3,False,,,,,,10,OMR,IPAD,1.0,
,,,,0,-1,-1,0,l+,25,8,"[8, 8, 4, 4, 2, 2, 1, 1]",1,2,0,100,lin,+,0,0,-1,up,2,6,True,,,,,,10,OMR,IPAD,1.0,
,,,,0,-1,-1,0,l-,25,8,"[8, 8, 4, 4, 2, 2, 1, 1]",1,2,0,100,lin,-,0,0,-1,up,2,2,True,,,,,,10,OMR,IPAD,1.0,
,,,,0,-1,-1,0,s-,1,8,"[8, 8, 4, 4, 2, 2, 1, 1]",1,2,0,100,lin,-,0,0,-1,up,1,1,True,,,,,,10,OMR,IPAD,1.0,
,,,,0,-1,-1,0,s-,1,8,"[8, 8, 4, 4, 2, 2, 1, 1]",1,2,0,100,lin,-,0,0,-1,down,1,0,False,,,,,,10,OMR,IPAD,1.0,
,,,,0,-1,-1,0,l-,25,8,"[8, 8, 4, 4, 2, 2, 1, 1]",1,2,0,100,lin,-,0,0,-1,up,2,2,False,,,,,,10,OMR,IPAD,1.0,
,,,,0,-1,-1,0,l+,25,8,"[8, 8, 4, 4, 2, 2, 1, 1]",1,2,0,100,lin,+,0,0,-1,down,1,5,False,,,,,,10,OMR,IPAD,1.0,
,,,,0,-1,-1,0,s+,1,8,"[8, 8, 4, 4, 2, 2, 1, 1]",1,2,0,100,lin,+,0,0,-1,up,1,4,True,,,,,,10,OMR,IPAD,1.0,
,,,,0,-1,-1,0,l+,25,8,"[8, 8, 4, 4, 2, 2, 1, 1]",1,2,0,100,lin,+,0,0,-1,up,1,6,False,,,,,,10,OMR,IPAD,1.0,
,,,,0,-1,-1,0,s+,1,8,"[8, 8, 4, 4, 2, 2, 1, 1]",1,2,0,100,lin,+,0,0,-1,up,1,4,True,,,,,,10,OMR,IPAD,1.0,
,,,,0,-1,-1,0,l-,25,8,"[8, 8, 4, 4, 2, 2, 1, 1]",1,2,0,100,lin,-,0,0,-1,up,2,4,True,,,,,,10,OMR,IPAD,1.0,
,,,,0,-1,-1,0,l-,25,8,"[8, 8, 4, 4, 2, 2, 1, 1]",1,2,0,100,lin,-,0,0,-1,up,2,4,True,,,,,,10,OMR,IPAD,1.0,
,,,,0,-1,-1,0,l+,25,8,"[8, 8, 4, 4, 2, 2, 1, 1]",1,2,0,100,lin,+,0,0,-1,up,1,7,True,,,,,,10,OMR,IPAD,1.0,
,,,,0,-1,-1,0,l+,25,8,"[8, 8, 4, 4, 2, 2, 1, 1]",1,2,0,100,lin,+,0,0,-1,up,1,7,True,,,,,,10,OMR,IPAD,1.0,
,,,,0,-1,-1,0,l-,25,8,"[8, 8, 4, 4, 2, 2, 1, 1]",1,2,0,100,lin,-,0,0,-1,down,1,3,True,,,,,,10,OMR,IPAD,1.0,
,,,,0,-1,-1,0,l-,25,8,"[8, 8, 4, 4, 2, 2, 1, 1]",1,2,0,100,lin,-,0,0,-1,down,1,3,True,,,,,,10,OMR,IPAD,1.0,
,,,,0,-1,-1,0,l-,25,8,"[8, 8, 4, 4, 2, 2, 1, 1]",1,2,0,100,lin,-,0,0,-1,down,1,2,True,,,,,,10,OMR,IPAD,1.0,
,,,,0,-1,-1,0,l-,25,8,"[8, 8, 4, 4, 2, 2, 1, 1]",1,2,0,100,lin,-,0,0,-1,down,1,2,True,,,,,,10,OMR,IPAD,1.0,
,,,,0,-1,-1,0,l-,25,8,"[8, 8, 4, 4, 2, 2, 1, 1]",1,2,0,100,lin,-,0,0,-1,down,1,1,True,,,,,,10,OMR,IPAD,1.0,
,,,,0,-1,-1,0,l-,25,8,"[8, 8, 4, 4, 2, 2, 1, 1]",1,2,0,100,lin,-,0,0,-1,down,1,1,False,,,,,,10,OMR,IPAD,1.0,
,,,,0,-1,-1,0,l-,25,8,"[8, 8, 4, 4, 2, 2, 1, 1]",1,2,0,100,lin,-,0,0,-1,up,1,2,True,,,,,,10,OMR,IPAD,1.0,
,,,,0,-1,-1,0,l-,25,8,"[8, 8, 4, 4, 2, 2, 1, 1]",1,2,0,100,lin,-,0,0,-1,up,1,2,False,,,,,,10,OMR,IPAD,1.0,
,,,,0,-1,-1,0,l-,25,8,"[8, 8, 4, 4, 2, 2, 1, 1]",1,2,0,100,lin,-,0,0,-1,up,1,3,True,,,,,,10,OMR,IPAD,1.0,
,,,,0,-1,-1,0,l-,25,8,"[8, 8, 4, 4, 2, 2, 1, 1]",1,2,0,100,lin,-,0,0,-1,up,1,3,True,,,,,,10,OMR,IPAD,1.0,
-,500,4,practice,0,0,0,0,,,,,,,,,,,0,0,0,,,,,10.75,-,9,2.6875,1,10,OMR,IPAD,1.0,
+,500,4,practice,0,1,1,1,,,,,,,,,,,1,0,1,,,,,10.75,+,1,2.6875,1,10,OMR,IPAD,1.0,
-,500,4,practice,0,2,2,2,,,,,,,,,,,2,0,2,,,,,10.75,-,1,2.6875,1,10,OMR,IPAD,1.0,
+,500,4,practice,0,3,3,3,,,,,,,,,,,3,0,3,,,,,10.75,+,1,2.6875,1,10,OMR,IPAD,1.0,
-,575,1.5,trial,0,4,4,4,,,,,,,,,,,4,0,4,,,,,4.03125,-,2,2.6875,1,10,OMR,IPAD,1.0,
+,500,1,trial,0,5,5,5,,,,,,,,,,,5,0,5,,,,,2.6875,+,1,2.6875,1,10,OMR,IPAD,1.0,
+,500,1,trial,0,6,6,6,,,,,,,,,,,6,0,6,,,,,2.6875,+,1,2.6875,1,10,OMR,IPAD,1.0,
+,575,1,trial,0,7,7,7,,,,,,,,,,,7,0,7,,,,,2.6875,-,1,2.6875,0,10,OMR,IPAD,1.0,
+,500,1.5,trial,0,8,8,8,,,,,,,,,,,8,0,8,,,,,4.03125,-,5,2.6875,0,10,OMR,IPAD,1.0,
-,500,1,trial,0,9,9,9,,,,,,,,,,,9,0,9,,,,,2.6875,-,3,2.6875,1,10,OMR,IPAD,1.0,
-,425,1,trial,0,10,10,10,,,,,,,,,,,10,0,10,,,,,2.6875,+,2,2.6875,0,10,OMR,IPAD,1.0,
+,425,1,trial,0,11,11,11,,,,,,,,,,,11,0,11,,,,,2.6875,-,1,2.6875,0,10,OMR,IPAD,1.0,
+,425,1.5,trial,0,12,12,12,,,,,,,,,,,12,0,12,,,,,4.03125,+,2,2.6875,1,10,OMR,IPAD,1.0,
+,500,1.5,trial,0,13,13,13,,,,,,,,,,,13,0,13,,,,,4.03125,+,3,2.6875,1,10,OMR,IPAD,1.0,
+,575,1,trial,0,14,14,14,,,,,,,,,,,14,0,14,,,,,2.6875,+,2,2.6875,1,10,OMR,IPAD,1.0,
-,575,1.5,trial,0,15,15,15,,,,,,,,,,,15,0,15,,,,,4.03125,-,3,2.6875,1,10,OMR,IPAD,1.0,
-,425,1,trial,0,16,16,16,,,,,,,,,,,16,0,16,,,,,2.6875,+,1,2.6875,0,10,OMR,IPAD,1.0,
+,500,1.5,trial,0,17,17,17,,,,,,,,,,,17,0,17,,,,,4.03125,-,2,2.6875,0,10,OMR,IPAD,1.0,
+,425,1,trial,0,18,18,18,,,,,,,,,,,18,0,18,,,,,2.6875,+,1,2.6875,1,10,OMR,IPAD,1.0,
-,575,1,trial,0,19,19,19,,,,,,,,,,,19,0,19,,,,,2.6875,-,1,2.6875,1,10,OMR,IPAD,1.0,
-,575,1,trial,0,20,20,20,,,,,,,,,,,20,0,20,,,,,2.6875,-,4,2.6875,1,10,OMR,IPAD,1.0,
-,500,1,trial,0,21,21,21,,,,,,,,,,,21,0,21,,,,,2.6875,-,3,2.6875,1,10,OMR,IPAD,1.0,
+,575,1.5,trial,0,22,22,22,,,,,,,,,,,22,0,22,,,,,4.03125,+,2,2.6875,1,10,OMR,IPAD,1.0,
+,575,1.5,trial,0,23,23,23,,,,,,,,,,,23,0,23,,,,,4.03125,+,2,2.6875,1,10,OMR,IPAD,1.0,
+,425,1.5,trial,0,24,24,24,,,,,,,,,,,24,0,24,,,,,4.03125,-,2,2.6875,0,10,OMR,IPAD,1.0,
-,575,1.5,trial,0,25,25,25,,,,,,,,,,,25,0,25,,,,,4.03125,+,2,2.6875,0,10,OMR,IPAD,1.0,
+,500,1.5,trial,0,26,26,26,,,,,,,,,,,26,0,26,,,,,4.03125,-,1,2.6875,0,10,OMR,IPAD,1.0,
-,425,1.5,trial,0,27,27,27,,,,,,,,,,,27,0,27,,,,,4.03125,+,2,2.6875,0,10,OMR,IPAD,1.0,
+,425,1,trial,0,28,28,28,,,,,,,,,,,28,0,28,,,,,2.6875,-,1,2.6875,0,10,OMR,IPAD,1.0,
-,425,1.5,trial,0,29,29,29,,,,,,,,,,,29,0,29,,,,,4.03125,-,3,2.6875,1,10,OMR,IPAD,1.0,
-,500,1.5,trial,0,30,30,30,,,,,,,,,,,30,0,30,,,,,4.03125,-,2,2.6875,1,10,OMR,IPAD,1.0,
-,500,1.5,trial,0,31,31,31,,,,,,,,,,,31,0,31,,,,,4.03125,-,2,2.6875,1,10,OMR,IPAD,1.0,
-,425,1.5,trial,0,32,32,32,,,,,,,,,,,32,0,32,,,,,4.03125,+,1,2.6875,0,10,OMR,IPAD,1.0,
+,575,1.5,trial,0,33,33,33,,,,,,,,,,,33,0,33,,,,,4.03125,-,1,2.6875,0,10,OMR,IPAD,1.0,
-,425,1,trial,0,34,34,34,,,,,,,,,,,34,0,34,,,,,2.6875,-,2,2.6875,1,10,OMR,IPAD,1.0,
+,575,1.5,trial,0,35,35,35,,,,,,,,,,,35,0,35,,,,,4.03125,-,1,2.6875,0,10,OMR,IPAD,1.0,
-,575,1,trial,0,36,36,36,,,,,,,,,,,36,0,36,,,,,2.6875,+,1,2.6875,0,10,OMR,IPAD,1.0,
-,500,1.5,trial,0,37,37,37,,,,,,,,,,,37,0,37,,,,,4.03125,-,1,2.6875,1,10,OMR,IPAD,1.0,
+,500,1,trial,0,38,38,38,,,,,,,,,,,38,0,38,,,,,2.6875,+,0,2.6875,1,10,OMR,IPAD,1.0,
+,575,1,trial,0,39,39,39,,,,,,,,,,,39,0,39,,,,,2.6875,-,1,2.6875,0,10,OMR,IPAD,1.0,
+,575,1,trial,0,40,40,40,,,,,,,,,,,40,0,40,,,,,2.6875,+,0,2.6875,1,10,OMR,IPAD,1.0,
-,575,1,trial,0,41,41,41,,,,,,,,,,,41,0,41,,,,,2.6875,-,1,2.6875,1,10,OMR,IPAD,1.0,
-,425,1.5,trial,0,42,42,42,,,,,,,,,,,42,0,42,,,,,4.03125,+,4,2.6875,0,10,OMR,IPAD,1.0,
+,425,1.5,trial,0,43,43,43,,,,,,,,,,,43,0,43,,,,,4.03125,-,0,2.6875,0,10,OMR,IPAD,1.0,
-,500,1.5,trial,0,44,44,44,,,,,,,,,,,44,0,44,,,,,4.03125,+,1,2.6875,0,10,OMR,IPAD,1.0,
+,500,1,trial,0,45,45,45,,,,,,,,,,,45,0,45,,,,,2.6875,-,0,2.6875,0,10,OMR,IPAD,1.0,
+,575,1.5,trial,0,46,46,46,,,,,,,,,,,46,0,46,,,,,4.03125,+,1,2.6875,1,10,OMR,IPAD,1.0,
+,500,1.5,trial,0,47,47,47,,,,,,,,,,,47,0,47,,,,,4.03125,-,0,2.6875,0,10,OMR,IPAD,1.0,
+,500,1,trial,0,48,48,48,,,,,,,,,,,48,0,48,,,,,2.6875,+,1,2.6875,1,10,OMR,IPAD,1.0,
-,425,1,trial,0,49,49,49,,,,,,,,,,,49,0,49,,,,,2.6875,-,1,2.6875,1,10,OMR,IPAD,1.0,
-,500,1,trial,0,50,50,50,,,,,,,,,,,50,0,50,,,,,2.6875,-,1,2.6875,1,10,OMR,IPAD,1.0,
-,575,1.5,trial,0,51,51,51,,,,,,,,,,,51,0,51,,,,,4.03125,+,0,2.6875,0,10,OMR,IPAD,1.0,
-,425,1,trial,0,52,52,52,,,,,,,,,,,52,0,52,,,,,2.6875,-,1,2.6875,1,10,OMR,IPAD,1.0,
+,425,1.5,trial,0,53,53,53,,,,,,,,,,,53,0,53,,,,,4.03125,+,0,2.6875,1,10,OMR,IPAD,1.0,
-,500,1,trial,0,54,54,54,,,,,,,,,,,54,0,54,,,,,2.6875,-,1,2.6875,1,10,OMR,IPAD,1.0,
+,425,1,trial,0,55,55,55,,,,,,,,,,,55,0,55,,,,,2.6875,+,0,2.6875,1,10,OMR,IPAD,1.0,
-,500,1,trial,0,56,56,56,,,,,,,,,,,56,0,56,,,,,2.6875,-,1,2.6875,1,10,OMR,IPAD,1.0,
+,425,1.5,trial,0,57,57,57,,,,,,,,,,,57,0,57,,,,,4.03125,+,0,2.6875,1,10,OMR,IPAD,1.0,
+,425,1,trial,0,58,58,58,,,,,,,,,,,58,0,58,,,,,2.6875,-,1,2.6875,0,10,OMR,IPAD,1.0,
+,575,1,trial,0,59,59,59,,,,,,,,,,,59,0,59,,,,,2.6875,-,1,2.6875,0,10,OMR,IPAD,1.0,
-,575,1,trial,0,60,60,60,,,,,,,,,,,60,0,60,,,,,2.6875,-,1,2.6875,1,10,OMR,IPAD,1.0,
-,575,1.5,trial,0,61,61,61,,,,,,,,,,,61,0,61,,,,,4.03125,-,1,2.6875,1,10,OMR,IPAD,1.0,
-,425,1.5,trial,0,62,62,62,,,,,,,,,,,62,0,62,,,,,4.03125,-,1,2.6875,1,10,OMR,IPAD,1.0,
-,500,1.5,trial,0,63,63,63,,,,,,,,,,,63,0,63,,,,,4.03125,+,1,2.6875,0,10,OMR,IPAD,1.0,
+,500,1.5,trial,0,64,64,64,,,,,,,,,,,64,0,64,,,,,4.03125,-,0,2.6875,0,10,OMR,IPAD,1.0,
+,500,1,trial,0,65,65,65,,,,,,,,,,,65,0,65,,,,,2.6875,+,1,2.6875,1,10,OMR,IPAD,1.0,
+,500,1,trial,0,66,66,66,,,,,,,,,,,66,0,66,,,,,2.6875,+,3,2.6875,1,10,OMR,IPAD,1.0,
+,500,1.5,trial,0,67,67,67,,,,,,,,,,,67,0,67,,,,,4.03125,-,0,2.6875,0,10,OMR,IPAD,1.0,
-,500,1,trial,0,68,68,68,,,,,,,,,,,68,0,68,,,,,2.6875,+,1,2.6875,0,10,OMR,IPAD,1.0,
-,575,1,trial,0,69,69,69,,,,,,,,,,,69,0,69,,,,,2.6875,-,0,2.6875,1,10,OMR,IPAD,1.0,
-,500,1,trial,0,70,70,70,,,,,,,,,,,70,0,70,,,,,2.6875,+,1,2.6875,0,10,OMR,IPAD,1.0,
-,500,1.5,trial,0,71,71,71,,,,,,,,,,,71,0,71,,,,,4.03125,-,1,2.6875,1,10,OMR,IPAD,1.0,
+,500,1.5,trial,0,72,72,72,,,,,,,,,,,72,0,72,,,,,4.03125,+,1,2.6875,1,10,OMR,IPAD,1.0,
+,575,1,trial,0,73,73,73,,,,,,,,,,,73,0,73,,,,,2.6875,+,2,2.6875,1,10,OMR,IPAD,1.0,
-,425,1.5,trial,0,74,74,74,,,,,,,,,,,74,0,74,,,,,4.03125,-,1,2.6875,1,10,OMR,IPAD,1.0,
+,500,1,trial,0,75,75,75,,,,,,,,,,,75,0,75,,,,,2.6875,+,1,2.6875,1,10,OMR,IPAD,1.0,
-,500,1,trial,0,76,76,76,,,,,,,,,,,76,0,76,,,,,2.6875,+,1,2.6875,0,10,OMR,IPAD,1.0,
+,575,1,trial,0,77,77,77,,,,,,,,,,,77,0,77,,,,,2.6875,+,0,2.6875,1,10,OMR,IPAD,1.0,
+,425,1.5,trial,0,78,78,78,,,,,,,,,,,78,0,78,,,,,4.03125,+,1,2.6875,1,10,OMR,IPAD,1.0,
+,575,1,trial,0,79,79,79,,,,,,,,,,,79,0,79,,,,,2.6875,-,0,2.6875,0,10,OMR,IPAD,1.0,
-,425,1,trial,0,80,80,80,,,,,,,,,,,80,0,80,,,,,2.6875,-,5,2.6875,1,10,OMR,IPAD,1.0,
-,575,1,trial,0,81,81,81,,,,,,,,,,,81,0,81,,,,,2.6875,+,0,2.6875,0,10,OMR,IPAD,1.0,
-,575,1.5,trial,0,82,82,82,,,,,,,,,,,82,0,82,,,,,4.03125,-,1,2.6875,1,10,OMR,IPAD,1.0,
-,575,1.5,trial,0,83,83,83,,,,,,,,,,,83,0,83,,,,,4.03125,+,1,2.6875,0,10,OMR,IPAD,1.0,
-,425,1.5,trial,0,84,84,84,,,,,,,,,,,84,0,84,,,,,4.03125,-,1,2.6875,1,10,OMR,IPAD,1.0,
-,425,1,trial,0,85,85,85,,,,,,,,,,,85,0,85,,,,,2.6875,-,3,2.6875,1,10,OMR,IPAD,1.0,
-,500,1.5,trial,0,86,86,86,,,,,,,,,,,86,0,86,,,,,4.03125,-,0,2.6875,1,10,OMR,IPAD,1.0,
+,500,1,trial,0,87,87,87,,,,,,,,,,,87,0,87,,,,,2.6875,+,0,2.6875,1,10,OMR,IPAD,1.0,
-,425,1.5,trial,0,88,88,88,,,,,,,,,,,88,0,88,,,,,4.03125,-,1,2.6875,1,10,OMR,IPAD,1.0,
-,575,1,trial,0,89,89,89,,,,,,,,,,,89,0,89,,,,,2.6875,+,6,2.6875,0,10,OMR,IPAD,1.0,
+,575,1.5,trial,0,90,90,90,,,,,,,,,,,90,0,90,,,,,4.03125,+,1,2.6875,1,10,OMR,IPAD,1.0,
+,425,1.5,trial,0,91,91,91,,,,,,,,,,,91,0,91,,,,,4.03125,+,1,2.6875,1,10,OMR,IPAD,1.0,
-,575,1,trial,0,92,92,92,,,,,,,,,,,92,0,92,,,,,2.6875,-,0,2.6875,1,10,OMR,IPAD,1.0,
+,575,1.5,trial,0,93,93,93,,,,,,,,,,,93,0,93,,,,,4.03125,+,1,2.6875,1,10,OMR,IPAD,1.0,
-,425,1,trial,0,94,94,94,,,,,,,,,,,94,0,94,,,,,2.6875,-,1,2.6875,1,10,OMR,IPAD,1.0,
-,425,1,trial,0,95,95,95,,,,,,,,,,,95,0,95,,,,,2.6875,-,1,2.6875,1,10,OMR,IPAD,1.0,
-,425,1,trial,0,96,96,96,,,,,,,,,,,96,0,96,,,,,2.6875,-,0,2.6875,1,10,OMR,IPAD,1.0,
+,425,1,trial,0,97,97,97,,,,,,,,,,,97,0,97,,,,,2.6875,+,1,2.6875,1,10,OMR,IPAD,1.0,
+,425,1,trial,0,98,98,98,,,,,,,,,,,98,0,98,,,,,2.6875,+,1,2.6875,1,10,OMR,IPAD,1.0,
+,575,1.5,trial,0,99,99,99,,,,,,,,,,,99,0,99,,,,,4.03125,+,1,2.6875,1,10,OMR,IPAD,1.0,
+,500,1,trial,0,100,100,100,,,,,,,,,,,100,0,100,,,,,2.6875,+,0,2.6875,1,10,OMR,IPAD,1.0,
+,500,1.5,trial,0,101,101,101,,,,,,,,,,,101,0,101,,,,,4.03125,+,1,2.6875,1,10,OMR,IPAD,1.0,
+,575,1.5,trial,0,102,102,102,,,,,,,,,,,102,0,102,,,,,4.03125,+,0,2.6875,1,10,OMR,IPAD,1.0,
+,425,1.5,trial,0,103,103,103,,,,,,,,,,,103,0,103,,,,,4.03125,+,1,2.6875,1,10,OMR,IPAD,1.0,
-,425,1.5,trial,0,104,104,104,,,,,,,,,,,104,0,104,,,,,4.03125,-,1,2.6875,1,10,OMR,IPAD,1.0,
-,500,1,trial,0,105,105,105,,,,,,,,,,,105,0,105,,,,,2.6875,+,0,2.6875,0,10,OMR,IPAD,1.0,
-,575,1,trial,0,106,106,106,,,,,,,,,,,106,0,106,,,,,2.6875,-,1,2.6875,1,10,OMR,IPAD,1.0,
-,575,1.5,trial,0,107,107,107,,,,,,,,,,,107,0,107,,,,,4.03125,+,3,2.6875,0,10,OMR,IPAD,1.0,
-,575,1.5,trial,0,108,108,108,,,,,,,,,,,108,0,108,,,,,4.03125,+,1,2.6875,0,10,OMR,IPAD,1.0,
-,500,1,trial,0,109,109,109,,,,,,,,,,,109,0,109,,,,,2.6875,-,1,2.6875,1,10,OMR,IPAD,1.0,
+,425,1,trial,0,110,110,110,,,,,,,,,,,110,0,110,,,,,2.6875,+,1,2.6875,1,10,OMR,IPAD,1.0,
+,425,1,trial,0,111,111,111,,,,,,,,,,,111,0,111,,,,,2.6875,+,1,2.6875,1,10,OMR,IPAD,1.0,
-,425,1.5,trial,0,112,112,112,,,,,,,,,,,112,0,112,,,,,4.03125,+,1,2.6875,0,10,OMR,IPAD,1.0,
-,575,1.5,trial,0,113,113,113,,,,,,,,,,,113,0,113,,,,,4.03125,-,0,2.6875,1,10,OMR,IPAD,1.0,
+,425,1,trial,0,114,114,114,,,,,,,,,,,114,0,114,,,,,2.6875,+,1,2.6875,1,10,OMR,IPAD,1.0,
+,575,1,trial,0,115,115,115,,,,,,,,,,,115,0,115,,,,,2.6875,-,1,2.6875,0,10,OMR,IPAD,1.0,
+,425,1.5,trial,0,116,116,116,,,,,,,,,,,116,0,116,,,,,4.03125,+,0,2.6875,1,10,OMR,IPAD,1.0,
+,500,1.5,trial,0,117,117,117,,,,,,,,,,,117,0,117,,,,,4.03125,+,0,2.6875,1,10,OMR,IPAD,1.0,
+,425,1.5,trial,0,118,118,118,,,,,,,,,,,118,0,118,,,,,4.03125,-,0,2.6875,0,10,OMR,IPAD,1.0,
-,500,1.5,trial,0,119,119,119,,,,,,,,,,,119,0,119,,,,,4.03125,-,1,2.6875,1,10,OMR,IPAD,1.0,
+,575,1.5,trial,0,120,120,120,,,,,,,,,,,120,0,120,,,,,4.03125,+,1,2.6875,1,10,OMR,IPAD,1.0,
+,575,1,trial,0,121,121,121,,,,,,,,,,,121,0,121,,,,,2.6875,+,0,2.6875,1,10,OMR,IPAD,1.0,
-,500,1.5,trial,0,122,122,122,,,,,,,,,,,122,0,122,,,,,4.03125,+,1,2.6875,0,10,OMR,IPAD,1.0,
-,500,1.5,trial,0,123,123,123,,,,,,,,,,,123,0,123,,,,,4.03125,+,0,2.6875,0,10,OMR,IPAD,1.0,
+,575,1,trial,0,124,124,124,,,,,,,,,,,124,0,124,,,,,2.6875,+,0,2.6875,1,10,OMR,IPAD,1.0,
+,500,1.5,trial,0,125,125,125,,,,,,,,,,,125,0,125,,,,,4.03125,+,0,2.6875,1,10,OMR,IPAD,1.0,
-,575,1,trial,0,126,126,126,,,,,,,,,,,126,0,126,,,,,2.6875,-,1,2.6875,1,10,OMR,IPAD,1.0,
-,500,1.5,trial,0,127,127,127,,,,,,,,,,,127,0,127,,,,,4.03125,+,1,2.6875,0,10,OMR,IPAD,1.0,
-,575,1.5,trial,0,128,128,128,,,,,,,,,,,128,0,128,,,,,4.03125,+,0,2.6875,0,10,OMR,IPAD,1.0,
-,425,1.5,trial,0,129,129,129,,,,,,,,,,,129,0,129,,,,,4.03125,+,2,2.6875,0,10,OMR,IPAD,1.0,
+,425,1.5,trial,0,130,130,130,,,,,,,,,,,130,0,130,,,,,4.03125,+,0,2.6875,1,10,OMR,IPAD,1.0,
-,575,1,trial,0,131,131,131,,,,,,,,,,,131,0,131,,,,,2.6875,+,0,2.6875,0,10,OMR,IPAD,1.0,
-,500,1.5,trial,0,132,132,132,,,,,,,,,,,132,0,132,,,,,4.03125,-,1,2.6875,1,10,OMR,IPAD,1.0,
+,575,1.5,trial,0,133,133,133,,,,,,,,,,,133,0,133,,,,,4.03125,+,1,2.6875,1,10,OMR,IPAD,1.0,
+,500,1.5,trial,0,134,134,134,,,,,,,,,,,134,0,134,,,,,4.03125,+,1,2.6875,1,10,OMR,IPAD,1.0,
-,575,1,trial,0,135,135,135,,,,,,,,,,,135,0,135,,,,,2.6875,+,1,2.6875,0,10,OMR,IPAD,1.0,
-,500,1,trial,0,136,136,136,,,,,,,,,,,136,0,136,,,,,2.6875,-,1,2.6875,1,10,OMR,IPAD,1.0,
-,425,1,trial,0,137,137,137,,,,,,,,,,,137,0,137,,,,,2.6875,+,1,2.6875,0,10,OMR,IPAD,1.0,
+,500,1.5,trial,0,138,138,138,,,,,,,,,,,138,0,138,,,,,4.03125,+,1,2.6875,1,10,OMR,IPAD,1.0,
-,425,1.5,trial,0,139,139,139,,,,,,,,,,,139,0,139,,,,,4.03125,-,1,2.6875,1,10,OMR,IPAD,1.0,
-,575,1.5,trial,0,140,140,140,,,,,,,,,,,140,0,140,,,,,4.03125,+,1,2.6875,0,10,OMR,IPAD,1.0,
-,500,1.5,trial,0,141,141,141,,,,,,,,,,,141,0,141,,,,,4.03125,-,1,2.6875,1,10,OMR,IPAD,1.0,
+,575,1,trial,0,142,142,142,,,,,,,,,,,142,0,142,,,,,2.6875,+,0,2.6875,1,10,OMR,IPAD,1.0,
+,425,1,trial,0,143,143,143,,,,,,,,,,,143,0,143,,,,,2.6875,+,1,2.6875,1,10,OMR,IPAD,1.0,
-,500,1.5,trial,0,144,144,144,,,,,,,,,,,144,0,144,,,,,4.03125,-,3,2.6875,1,10,OMR,IPAD,1.0,
-,425,1.5,trial,0,145,145,145,,,,,,,,,,,145,0,145,,,,,4.03125,+,0,2.6875,0,10,OMR,IPAD,1.0,
-,575,1.5,trial,0,146,146,146,,,,,,,,,,,146,0,146,,,,,4.03125,+,2,2.6875,0,10,OMR,IPAD,1.0,
+,500,1,trial,0,147,147,147,,,,,,,,,,,147,0,147,,,,,2.6875,+,0,2.6875,1,10,OMR,IPAD,1.0,
-,500,1,trial,0,148,148,148,,,,,,,,,,,148,0,148,,,,,2.6875,-,1,2.6875,1,10,OMR,IPAD,1.0,
+,575,1,trial,0,149,149,149,,,,,,,,,,,149,0,149,,,,,2.6875,+,0,2.6875,1,10,OMR,IPAD,1.0,
+,425,1,trial,0,150,150,150,,,,,,,,,,,150,0,150,,,,,2.6875,+,0,2.6875,1,10,OMR,IPAD,1.0,
-,575,1.5,trial,0,151,151,151,,,,,,,,,,,151,0,151,,,,,4.03125,+,1,2.6875,0,10,OMR,IPAD,1.0,
+,425,1,trial,0,152,152,152,,,,,,,,,,,152,0,152,,,,,2.6875,+,0,2.6875,1,10,OMR,IPAD,1.0,
+,575,1.5,trial,0,153,153,153,,,,,,,,,,,153,0,153,,,,,4.03125,+,2,2.6875,1,10,OMR,IPAD,1.0,
+,500,1,trial,0,154,154,154,,,,,,,,,,,154,0,154,,,,,2.6875,+,0,2.6875,1,10,OMR,IPAD,1.0,
+,500,1.5,trial,0,155,155,155,,,,,,,,,,,155,0,155,,,,,4.03125,+,1,2.6875,1,10,OMR,IPAD,1.0,
-,425,1.5,trial,0,156,156,156,,,,,,,,,,,156,0,156,,,,,4.03125,-,1,2.6875,1,10,OMR,IPAD,1.0,
+,425,1.5,trial,0,157,157,157,,,,,,,,,,,157,0,157,,,,,4.03125,+,1,2.6875,1,10,OMR,IPAD,1.0,
-,425,1,trial,0,158,158,158,,,,,,,,,,,158,0,158,,,,,2.6875,-,1,2.6875,1,10,OMR,IPAD,1.0,
+,575,1,trial,0,159,159,159,,,,,,,,,,,159,0,159,,,,,2.6875,+,1,2.6875,1,10,OMR,IPAD,1.0,
+,575,1,trial,0,160,160,160,,,,,,,,,,,160,0,160,,,,,2.6875,+,1,2.6875,1,10,OMR,IPAD,1.0,
+,500,1,trial,0,161,161,161,,,,,,,,,,,161,0,161,,,,,2.6875,+,1,2.6875,1,10,OMR,IPAD,1.0,
+,575,1.5,trial,0,162,162,162,,,,,,,,,,,162,0,162,,,,,4.03125,+,1,2.6875,1,10,OMR,IPAD,1.0,
-,425,1,trial,0,163,163,163,,,,,,,,,,,163,0,163,,,,,2.6875,-,1,2.6875,1,10,OMR,IPAD,1.0,
-,500,1,trial,0,164,164,164,,,,,,,,,,,164,0,164,,,,,2.6875,-,2,2.6875,1,10,OMR,IPAD,1.0,
+,575,1.5,trial,0,165,165,165,,,,,,,,,,,165,0,165,,,,,4.03125,-,3,2.6875,0,10,OMR,IPAD,1.0,
+,425,1.5,trial,0,166,166,166,,,,,,,,,,,166,0,166,,,,,4.03125,+,1,2.6875,1,10,OMR,IPAD,1.0,
-,575,1,trial,0,167,167,167,,,,,,,,,,,167,0,167,,,,,2.6875,-,1,2.6875,1,10,OMR,IPAD,1.0,
-,425,1.5,trial,0,168,168,168,,,,,,,,,,,168,0,168,,,,,4.03125,+,0,2.6875,0,10,OMR,IPAD,1.0,
+,425,1.5,trial,0,169,169,169,,,,,,,,,,,169,0,169,,,,,4.03125,+,1,2.6875,1,10,OMR,IPAD,1.0,
-,500,1,trial,0,170,170,170,,,,,,,,,,,170,0,170,,,,,2.6875,-,1,2.6875,1,10,OMR,IPAD,1.0,
-,500,1.5,trial,0,171,171,171,,,,,,,,,,,171,0,171,,,,,4.03125,-,2,2.6875,1,10,OMR,IPAD,1.0,
+,425,1.5,trial,0,172,172,172,,,,,,,,,,,172,0,172,,,,,4.03125,+,1,2.6875,1,10,OMR,IPAD,1.0,
+,575,1.5,trial,0,173,173,173,,,,,,,,,,,173,0,173,,,,,4.03125,+,1,2.6875,1,10,OMR,IPAD,1.0,
+,500,1.5,trial,0,174,174,174,,,,,,,,,,,174,0,174,,,,,4.03125,+,1,2.6875,1,10,OMR,IPAD,1.0,
+,500,1,trial,0,175,175,175,,,,,,,,,,,175,0,175,,,,,2.6875,+,1,2.6875,1,10,OMR,IPAD,1.0,
+,425,1,trial,0,176,176,176,,,,,,,,,,,176,0,176,,,,,2.6875,+,1,2.6875,1,10,OMR,IPAD,1.0,
-,425,1,trial,0,177,177,177,,,,,,,,,,,177,0,177,,,,,2.6875,+,1,2.6875,0,10,OMR,IPAD,1.0,
-,500,1,trial,0,178,178,178,,,,,,,,,,,178,0,178,,,,,2.6875,-,6,2.6875,1,10,OMR,IPAD,1.0,
+,425,1,trial,0,179,179,179,,,,,,,,,,,179,0,179,,,,,2.6875,+,1,2.6875,1,10,OMR,IPAD,1.0,
-,575,1,trial,0,180,180,180,,,,,,,,,,,180,0,180,,,,,2.6875,+,2,2.6875,0,10,OMR,IPAD,1.0,
-,425,1,trial,0,181,181,181,,,,,,,,,,,181,0,181,,,,,2.6875,-,1,2.6875,1,10,OMR,IPAD,1.0,
+,500,1,trial,0,182,182,182,,,,,,,,,,,182,0,182,,,,,2.6875,+,1,2.6875,1,10,OMR,IPAD,1.0,
-,575,1.5,trial,0,183,183,183,,,,,,,,,,,183,0,183,,,,,4.03125,-,1,2.6875,1,10,OMR,IPAD,1.0,
+,575,1,trial,0,184,184,184,,,,,,,,,,,184,0,184,,,,,2.6875,-,1,2.6875,0,10,OMR,IPAD,1.0,
-,425,1,trial,0,185,185,185,,,,,,,,,,,185,0,185,,,,,2.6875,+,1,2.6875,0,10,OMR,IPAD,1.0,
-,575,1,trial,0,186,186,186,,,,,,,,,,,186,0,186,,,,,2.6875,+,1,2.6875,0,10,OMR,IPAD,1.0,
-,500,1.5,trial,0,187,187,187,,,,,,,,,,,187,0,187,,,,,4.03125,-,1,2.6875,1,10,OMR,IPAD,1.0,
-,425,1,trial,0,188,188,188,,,,,,,,,,,188,0,188,,,,,2.6875,+,1,2.6875,0,10,OMR,IPAD,1.0,
+,575,1,trial,0,189,189,189,,,,,,,,,,,189,0,189,,,,,2.6875,+,0,2.6875,1,10,OMR,IPAD,1.0,
-,575,1.5,trial,0,190,190,190,,,,,,,,,,,190,0,190,,,,,4.03125,+,1,2.6875,0,10,OMR,IPAD,1.0,
+,575,1,trial,0,191,191,191,,,,,,,,,,,191,0,191,,,,,2.6875,+,9,2.6875,1,10,OMR,IPAD,1.0,
-,500,1.5,trial,0,192,192,192,,,,,,,,,,,192,0,192,,,,,4.03125,+,2,2.6875,0,10,OMR,IPAD,1.0,
+,500,1,trial,0,193,193,193,,,,,,,,,,,193,0,193,,,,,2.6875,+,0,2.6875,1,10,OMR,IPAD,1.0,
-,425,1.5,trial,0,194,194,194,,,,,,,,,,,194,0,194,,,,,4.03125,-,1,2.6875,1,10,OMR,IPAD,1.0,
-,500,1,trial,0,195,195,195,,,,,,,,,,,195,0,195,,,,,2.6875,-,1,2.6875,1,10,OMR,IPAD,1.0,
-,575,1,trial,0,196,196,196,,,,,,,,,,,196,0,196,,,,,2.6875,-,0,2.6875,1,10,OMR,IPAD,1.0,
-,575,1.5,trial,0,197,197,197,,,,,,,,,,,197,0,197,,,,,4.03125,-,1,2.6875,1,10,OMR,IPAD,1.0,
+,500,1.5,trial,0,198,198,198,,,,,,,,,,,198,0,198,,,,,4.03125,-,1,2.6875,0,10,OMR,IPAD,1.0,
+,425,1,trial,0,199,199,199,,,,,,,,,,,199,0,199,,,,,2.6875,-,1,2.6875,0,10,OMR,IPAD,1.0,
+,500,1.5,trial,0,200,200,200,,,,,,,,,,,200,0,200,,,,,4.03125,+,1,2.6875,1,10,OMR,IPAD,1.0,
-,500,1,trial,0,201,201,201,,,,,,,,,,,201,0,201,,,,,2.6875,-,1,2.6875,1,10,OMR,IPAD,1.0,
-,425,1,trial,0,202,202,202,,,,,,,,,,,202,0,202,,,,,2.6875,-,0,2.6875,1,10,OMR,IPAD,1.0,
+,500,1,trial,0,203,203,203,,,,,,,,,,,203,0,203,,,,,2.6875,+,1,2.6875,1,10,OMR,IPAD,1.0,
+,425,1.5,trial,0,204,204,204,,,,,,,,,,,204,0,204,,,,,4.03125,+,1,2.6875,1,10,OMR,IPAD,1.0,
-,425,1.5,trial,0,205,205,205,,,,,,,,,,,205,0,205,,,,,4.03125,-,0,2.6875,1,10,OMR,IPAD,1.0,
-,575,1,trial,0,206,206,206,,,,,,,,,,,206,0,206,,,,,2.6875,+,1,2.6875,0,10,OMR,IPAD,1.0,
+,575,1,trial,0,207,207,207,,,,,,,,,,,207,0,207,,,,,2.6875,+,1,2.6875,1,10,OMR,IPAD,1.0,
-,575,1.5,trial,0,208,208,208,,,,,,,,,,,208,0,208,,,,,4.03125,-,0,2.6875,1,10,OMR,IPAD,1.0,
-,500,1,trial,0,209,209,209,,,,,,,,,,,209,0,209,,,,,2.6875,-,1,2.6875,1,10,OMR,IPAD,1.0,
+,500,1,trial,0,210,210,210,,,,,,,,,,,210,0,210,,,,,2.6875,+,1,2.6875,1,10,OMR,IPAD,1.0,
-,425,1.5,trial,0,211,211,211,,,,,,,,,,,211,0,211,,,,,4.03125,-,1,2.6875,1,10,OMR,IPAD,1.0,
+,500,1.5,trial,0,212,212,212,,,,,,,,,,,212,0,212,,,,,4.03125,+,1,2.6875,1,10,OMR,IPAD,1.0,
+,575,1,trial,0,213,213,213,,,,,,,,,,,213,0,213,,,,,2.6875,+,0,2.6875,1,10,OMR,IPAD,1.0,
-,500,1,trial,0,214,214,214,,,,,,,,,,,214,0,214,,,,,2.6875,-,1,2.6875,1,10,OMR,IPAD,1.0,
+,575,1.5,trial,0,215,215,215,,,,,,,,,,,215,0,215,,,,,4.03125,+,1,2.6875,1,10,OMR,IPAD,1.0,
+,425,1,trial,0,216,216,216,,,,,,,,,,,216,0,216,,,,,2.6875,+,1,2.6875,1,10,OMR,IPAD,1.0,
+,500,1,trial,0,217,217,217,,,,,,,,,,,217,0,217,,,,,2.6875,+,4,2.6875,1,10,OMR,IPAD,1.0,
+,500,1.5,trial,0,218,218,218,,,,,,,,,,,218,0,218,,,,,4.03125,+,1,2.6875,1,10,OMR,IPAD,1.0,
-,575,1.5,trial,0,219,219,219,,,,,,,,,,,219,0,219,,,,,4.03125,-,1,2.6875,1,10,OMR,IPAD,1.0,
+,500,1,trial,0,220,220,220,,,,,,,,,,,220,0,220,,,,,2.6875,+,1,2.6875,1,10,OMR,IPAD,1.0,
-,500,1.5,trial,0,221,221,221,,,,,,,,,,,221,0,221,,,,,4.03125,-,2,2.6875,1,10,OMR,IPAD,1.0,
+,575,1.5,trial,0,222,222,222,,,,,,,,,,,222,0,222,,,,,4.03125,+,1,2.6875,1,10,OMR,IPAD,1.0,
+,575,1.5,trial,0,223,223,223,,,,,,,,,,,223,0,223,,,,,4.03125,+,0,2.6875,1,10,OMR,IPAD,1.0,
-,500,1.5,trial,0,224,224,224,,,,,,,,,,,224,0,224,,,,,4.03125,-,1,2.6875,1,10,OMR,IPAD,1.0,
-,500,1,trial,0,225,225,225,,,,,,,,,,,225,0,225,,,,,2.6875,-,1,2.6875,1,10,OMR,IPAD,1.0,
+,425,1,trial,0,226,226,226,,,,,,,,,,,226,0,226,,,,,2.6875,+,0,2.6875,1,10,OMR,IPAD,1.0,
+,425,1.5,trial,0,227,227,227,,,,,,,,,,,227,0,227,,,,,4.03125,-,2,2.6875,0,10,OMR,IPAD,1.0,
-,575,1.5,trial,0,228,228,228,,,,,,,,,,,228,0,228,,,,,4.03125,-,1,2.6875,1,10,OMR,IPAD,1.0,
-,575,1,trial,0,229,229,229,,,,,,,,,,,229,0,229,,,,,2.6875,-,1,2.6875,1,10,OMR,IPAD,1.0,
+,425,1.5,trial,0,230,230,230,,,,,,,,,,,230,0,230,,,,,4.03125,+,1,2.6875,1,10,OMR,IPAD,1.0,
-,500,1.5,trial,0,231,231,231,,,,,,,,,,,231,0,231,,,,,4.03125,-,0,2.6875,1,10,OMR,IPAD,1.0,
+,425,1.5,trial,0,232,232,232,,,,,,,,,,,232,0,232,,,,,4.03125,-,1,2.6875,0,10,OMR,IPAD,1.0,
+,425,1,trial,0,233,233,233,,,,,,,,,,,233,0,233,,,,,2.6875,+,2,2.6875,1,10,OMR,IPAD,1.0,
-,575,1,trial,0,234,234,234,,,,,,,,,,,234,0,234,,,,,2.6875,-,1,2.6875,1,10,OMR,IPAD,1.0,
+,575,1.5,trial,0,235,235,235,,,,,,,,,,,235,0,235,,,,,4.03125,+,1,2.6875,1,10,OMR,IPAD,1.0,
+,425,1.5,trial,0,236,236,236,,,,,,,,,,,236,0,236,,,,,4.03125,+,1,2.6875,1,10,OMR,IPAD,1.0,
-,425,1,trial,0,237,237,237,,,,,,,,,,,237,0,237,,,,,2.6875,+,5,2.6875,0,10,OMR,IPAD,1.0,
+,500,1.5,trial,0,238,238,238,,,,,,,,,,,238,0,238,,,,,4.03125,+,1,2.6875,1,10,OMR,IPAD,1.0,
+,575,1.5,trial,0,239,239,239,,,,,,,,,,,239,0,239,,,,,4.03125,-,1,2.6875,0,10,OMR,IPAD,1.0,
-,425,1.5,trial,0,240,240,240,,,,,,,,,,,240,0,240,,,,,4.03125,-,1,2.6875,1,10,OMR,IPAD,1.0,
-,425,1.5,trial,0,241,241,241,,,,,,,,,,,241,0,241,,,,,4.03125,-,3,2.6875,1,10,OMR,IPAD,1.0,
-,425,1,trial,0,242,242,242,,,,,,,,,,,242,0,242,,,,,2.6875,-,2,2.6875,1,10,OMR,IPAD,1.0,
+,425,1,trial,0,243,243,243,,,,,,,,,,,243,0,243,,,,,2.6875,+,1,2.6875,1,10,OMR,IPAD,1.0,
